SpectraSuite Data File
++++++++++++++++++++++++++++++++++++
Date: Sun Sep 13 18:41:06 EDT 2015
User: lab3
Dark Spectrum Present: No
Reference Spectrum Present: No
Number of Sampled Component Spectra: 1
Spectrometers: USB2E7196
Integration Time (usec): 65000 (USB2E7196)
Spectra Averaged: 200 (USB2E7196)
Boxcar Smoothing: 10 (USB2E7196)
Correct for Electrical Dark: No (USB2E7196)
Strobe/Lamp Enabled: No (USB2E7196)
Correct for Detector Non-linearity: No (USB2E7196)
Correct for Stray Light: No (USB2E7196)
Number of Pixels in Processed Spectrum: 2048
>>>>>Begin Processed Spectral Data<<<<<
339.09	0.00
339.48	215.68
339.86	217.16
340.24	218.44
340.63	219.36
341.01	223.43
341.39	222.39
341.78	223.81
342.16	225.20
342.54	225.56
342.93	213.86
343.31	224.66
343.69	225.18
344.07	225.62
344.46	226.05
344.84	226.45
345.22	226.63
345.60	226.90
345.99	227.10
346.37	227.21
346.75	227.30
347.13	227.35
347.52	227.42
347.90	227.54
348.28	227.59
348.66	227.66
349.05	227.61
349.43	227.66
349.81	227.71
350.19	227.77
350.57	227.79
350.96	227.86
351.34	227.96
351.72	228.05
352.10	228.15
352.48	228.20
352.87	228.23
353.25	228.29
353.63	228.31
354.01	228.36
354.39	228.44
354.77	228.51
355.15	228.66
355.54	228.69
355.92	228.69
356.30	228.76
356.68	228.94
357.06	229.03
357.44	229.08
357.82	229.14
358.20	229.33
358.58	229.40
358.97	229.47
359.35	229.56
359.73	229.63
360.11	229.67
360.49	229.74
360.87	229.79
361.25	229.88
361.63	229.97
362.01	230.02
362.39	230.03
362.77	230.09
363.15	230.06
363.53	230.12
363.91	230.16
364.29	230.14
364.67	229.95
365.05	229.95
365.43	229.95
365.81	229.99
366.19	229.93
366.57	229.97
366.95	229.95
367.33	229.87
367.71	229.83
368.09	229.84
368.47	229.80
368.85	229.78
369.23	229.74
369.61	229.66
369.99	229.66
370.37	229.63
370.75	229.70
371.13	229.65
371.51	229.55
371.89	229.48
372.27	229.44
372.65	229.42
373.03	229.37
373.41	229.29
373.78	229.18
374.16	229.02
374.54	228.91
374.92	228.81
375.30	228.71
375.68	228.63
376.06	228.56
376.44	228.45
376.82	228.36
377.19	228.27
377.57	228.18
377.95	228.05
378.33	227.95
378.71	227.70
379.09	227.60
379.47	227.55
379.84	227.45
380.22	227.34
380.60	227.21
380.98	227.12
381.36	227.06
381.73	226.95
382.11	226.88
382.49	226.79
382.87	226.68
383.25	226.63
383.62	226.76
384.00	226.65
384.38	226.60
384.76	226.58
385.13	226.58
385.51	226.52
385.89	226.45
386.27	226.41
386.64	226.38
387.02	226.33
387.40	226.24
387.78	226.22
388.15	226.21
388.53	226.16
388.91	226.13
389.29	226.08
389.66	226.10
390.04	226.06
390.42	226.09
390.79	226.10
391.17	226.11
391.55	225.90
391.92	225.93
392.30	225.96
392.68	225.95
393.05	225.95
393.43	225.98
393.81	225.99
394.18	225.99
394.56	226.06
394.94	226.17
395.31	226.22
395.69	226.30
396.06	226.39
396.44	226.48
396.82	226.54
397.19	226.73
397.57	226.80
397.95	226.91
398.32	226.95
398.70	227.08
399.07	227.21
399.45	227.31
399.82	227.41
400.20	227.51
400.58	227.63
400.95	227.70
401.33	227.88
401.70	228.15
402.08	228.32
402.45	228.47
402.83	228.67
403.20	228.87
403.58	229.04
403.95	229.27
404.33	229.49
404.71	229.71
405.08	230.00
405.46	230.24
405.83	230.50
406.21	230.77
406.58	231.06
406.96	231.34
407.33	231.67
407.70	232.03
408.08	232.53
408.45	232.93
408.83	233.38
409.20	233.79
409.58	234.13
409.95	234.63
410.33	235.14
410.70	235.58
411.08	236.15
411.45	236.72
411.82	237.30
412.20	238.00
412.57	238.82
412.95	239.39
413.32	240.21
413.69	241.04
414.07	241.91
414.44	242.85
414.82	243.81
415.19	244.92
415.56	246.06
415.94	247.20
416.31	248.52
416.68	249.83
417.06	251.36
417.43	252.80
417.81	254.41
418.18	256.08
418.55	257.93
418.93	259.80
419.30	261.80
419.67	263.92
420.04	266.07
420.42	268.29
420.79	270.92
421.16	273.55
421.54	276.25
421.91	279.03
422.28	281.93
422.66	285.05
423.03	288.07
423.40	291.21
423.77	294.56
424.15	297.97
424.52	301.56
424.89	305.43
425.26	309.27
425.64	312.86
426.01	316.89
426.38	320.97
426.75	325.23
427.13	329.58
427.50	334.14
427.87	338.90
428.24	343.70
428.61	348.28
428.99	353.29
429.36	358.73
429.73	363.97
430.10	369.22
430.47	374.60
430.85	380.10
431.22	386.04
431.59	392.22
431.96	398.24
432.33	404.87
432.70	411.22
433.08	418.76
433.45	425.92
433.82	432.93
434.19	440.82
434.56	448.58
434.93	456.07
435.30	463.47
435.68	471.88
436.05	480.16
436.42	488.48
436.79	496.01
437.16	504.22
437.53	513.05
437.90	521.86
438.27	530.43
438.64	539.70
439.01	548.14
439.38	555.86
439.75	563.34
440.13	571.80
440.50	579.82
440.87	586.19
441.24	593.12
441.61	600.69
441.98	606.26
442.35	612.89
442.72	619.69
443.09	626.19
443.46	630.33
443.83	633.36
444.20	635.91
444.57	639.65
444.94	641.84
445.31	644.05
445.68	646.05
446.05	647.45
446.42	647.15
446.79	646.66
447.16	646.19
447.53	645.75
447.90	643.15
448.27	640.69
448.64	636.94
449.01	634.36
449.37	629.19
449.74	624.41
450.11	618.22
450.48	611.38
450.85	604.51
451.22	598.64
451.59	592.95
451.96	587.69
452.33	580.17
452.70	573.44
453.07	565.26
453.43	556.99
453.80	549.08
454.17	541.47
454.54	534.43
454.91	526.50
455.28	519.09
455.65	512.09
456.02	504.77
456.38	498.73
456.75	491.03
457.12	484.81
457.49	478.58
457.86	472.66
458.23	467.57
458.59	461.90
458.96	456.09
459.33	450.99
459.70	445.83
460.07	441.87
460.43	437.22
460.80	432.85
461.17	429.09
461.54	424.99
461.91	421.15
462.27	417.21
462.64	414.04
463.01	410.39
463.38	406.72
463.74	403.31
464.11	400.43
464.48	397.78
464.85	394.92
465.21	392.72
465.58	390.31
465.95	387.47
466.32	385.24
466.68	383.08
467.05	380.84
467.42	378.69
467.78	376.39
468.15	374.26
468.52	372.75
468.88	370.67
469.25	368.80
469.62	367.32
469.98	365.68
470.35	364.21
470.72	362.87
471.08	361.47
471.45	360.31
471.82	359.00
472.18	357.68
472.55	356.76
472.92	355.70
473.28	354.76
473.65	353.84
474.02	352.93
474.38	352.12
474.75	351.68
475.11	351.02
475.48	350.70
475.85	350.34
476.21	350.08
476.58	349.92
476.94	349.99
477.31	349.97
477.67	349.95
478.04	350.09
478.41	350.32
478.77	350.74
479.14	350.97
479.50	351.44
479.87	352.04
480.23	352.70
480.60	353.26
480.96	353.91
481.33	354.83
481.69	355.77
482.06	356.71
482.42	357.50
482.79	358.57
483.15	359.82
483.52	361.29
483.88	362.64
484.25	364.09
484.61	365.57
484.98	367.21
485.34	369.10
485.71	371.02
486.07	373.07
486.44	375.04
486.80	377.32
487.17	379.63
487.53	382.25
487.90	384.91
488.26	387.91
488.62	391.03
488.99	394.13
489.35	397.37
489.72	400.84
490.08	404.56
490.44	408.29
490.81	412.16
491.17	416.10
491.54	420.35
491.90	424.72
492.26	429.38
492.63	434.18
492.99	439.20
493.36	444.33
493.72	449.76
494.08	455.32
494.45	461.11
494.81	467.20
495.17	473.32
495.54	479.83
495.90	486.47
496.26	493.27
496.63	500.23
496.99	507.43
497.35	514.98
497.72	522.70
498.08	530.56
498.44	538.57
498.80	547.07
499.17	555.72
499.53	564.46
499.89	573.46
500.26	582.61
500.62	591.96
500.98	601.84
501.34	611.71
501.71	621.96
502.07	632.28
502.43	642.79
502.79	653.62
503.16	664.64
503.52	675.71
503.88	686.92
504.24	698.48
504.60	710.18
504.97	722.12
505.33	734.22
505.69	746.91
506.05	759.57
506.41	772.05
506.78	784.63
507.14	797.63
507.50	810.88
507.86	824.22
508.22	837.70
508.59	850.91
508.95	864.60
509.31	878.54
509.67	892.96
510.03	907.35
510.39	921.47
510.75	935.53
511.12	949.71
511.48	964.02
511.84	978.23
512.20	992.52
512.56	1007.26
512.92	1021.91
513.28	1036.16
513.64	1050.57
514.00	1065.19
514.37	1079.90
514.73	1094.36
515.09	1108.57
515.45	1122.81
515.81	1136.87
516.17	1150.73
516.53	1164.23
516.89	1177.57
517.25	1190.76
517.61	1203.92
517.97	1217.32
518.33	1230.33
518.69	1243.16
519.05	1256.09
519.41	1268.96
519.77	1281.97
520.13	1293.95
520.49	1305.96
520.85	1317.93
521.21	1329.65
521.57	1341.38
521.93	1352.35
522.29	1363.76
522.65	1374.72
523.01	1385.44
523.37	1395.71
523.73	1406.30
524.09	1416.63
524.45	1426.75
524.81	1436.41
525.17	1446.07
525.53	1455.13
525.89	1464.19
526.25	1473.11
526.61	1481.22
526.97	1489.31
527.33	1497.06
527.68	1505.02
528.04	1512.54
528.40	1519.72
528.76	1526.77
529.12	1533.41
529.48	1540.42
529.84	1545.77
530.20	1551.44
530.56	1556.71
530.91	1562.09
531.27	1567.42
531.63	1572.42
531.99	1577.04
532.35	1580.81
532.71	1584.57
533.07	1588.60
533.42	1591.66
533.78	1595.18
534.14	1598.58
534.50	1601.55
534.86	1604.75
535.21	1606.53
535.57	1608.23
535.93	1609.85
536.29	1611.08
536.65	1612.15
537.00	1612.50
537.36	1613.85
537.72	1614.14
538.08	1614.31
538.44	1614.16
538.79	1613.68
539.15	1612.17
539.51	1610.62
539.87	1609.12
540.22	1606.34
540.58	1603.94
540.94	1602.01
541.29	1599.03
541.65	1595.88
542.01	1592.62
542.37	1588.22
542.72	1584.95
543.08	1581.16
543.44	1577.17
543.79	1572.98
544.15	1568.26
544.51	1563.61
544.87	1558.39
545.22	1553.32
545.58	1547.90
545.94	1542.35
546.29	1536.48
546.65	1531.13
547.01	1525.45
547.36	1520.18
547.72	1515.14
548.07	1509.07
548.43	1502.78
548.79	1496.50
549.14	1490.55
549.50	1484.46
549.86	1478.52
550.21	1471.55
550.57	1465.04
550.92	1458.13
551.28	1450.90
551.64	1444.05
551.99	1437.40
552.35	1430.63
552.70	1423.80
553.06	1417.32
553.41	1410.66
553.77	1403.67
554.13	1396.60
554.48	1389.51
554.84	1382.09
555.19	1374.75
555.55	1367.63
555.90	1360.39
556.26	1353.47
556.61	1346.16
556.97	1338.44
557.32	1330.72
557.68	1323.29
558.03	1315.59
558.39	1308.15
558.74	1301.49
559.10	1294.20
559.45	1286.90
559.81	1279.66
560.16	1272.37
560.52	1265.16
560.87	1258.39
561.23	1251.33
561.58	1244.58
561.94	1237.52
562.29	1230.28
562.64	1223.47
563.00	1216.42
563.35	1209.76
563.71	1202.97
564.06	1196.16
564.42	1189.48
564.77	1182.89
565.12	1176.61
565.48	1170.49
565.83	1164.42
566.19	1158.16
566.54	1151.98
566.89	1145.28
567.25	1138.84
567.60	1132.83
567.96	1126.78
568.31	1120.16
568.66	1113.79
569.02	1107.68
569.37	1102.08
569.72	1096.70
570.08	1091.06
570.43	1085.38
570.78	1079.53
571.14	1073.52
571.49	1067.61
571.84	1062.07
572.20	1056.22
572.55	1050.46
572.90	1044.43
573.26	1038.36
573.61	1032.05
573.96	1026.04
574.31	1020.36
574.67	1014.83
575.02	1008.90
575.37	1002.97
575.72	997.19
576.08	991.54
576.43	985.44
576.78	979.20
577.13	973.21
577.49	967.27
577.84	961.45
578.19	955.52
578.54	949.65
578.90	943.82
579.25	937.88
579.60	932.40
579.95	926.87
580.30	921.80
580.66	916.66
581.01	911.43
581.36	906.26
581.71	901.30
582.06	896.25
582.42	891.37
582.77	886.43
583.12	881.84
583.47	877.33
583.82	872.93
584.17	868.39
584.53	863.85
584.88	859.31
585.23	854.83
585.58	850.44
585.93	846.09
586.28	841.97
586.63	837.83
586.98	833.56
587.34	829.34
587.69	824.63
588.04	820.13
588.39	815.97
588.74	811.70
589.09	807.67
589.44	803.32
589.79	799.36
590.14	795.45
590.49	791.36
590.84	787.34
591.19	783.51
591.54	779.63
591.89	775.64
592.25	771.97
592.60	768.04
592.95	764.35
593.30	760.75
593.65	757.01
594.00	753.35
594.35	750.10
594.70	746.30
595.05	742.99
595.40	739.59
595.75	735.97
596.10	732.62
596.45	729.08
596.80	725.75
597.15	722.23
597.50	718.77
597.85	715.62
598.19	712.36
598.54	709.05
598.89	706.03
599.24	703.14
599.59	700.07
599.94	697.33
600.29	694.45
600.64	691.42
600.99	688.29
601.34	685.24
601.69	681.81
602.04	679.08
602.39	676.27
602.74	673.65
603.08	671.10
603.43	668.39
603.78	665.56
604.13	662.85
604.48	660.07
604.83	657.36
605.18	654.39
605.53	651.59
605.87	648.71
606.22	645.86
606.57	642.92
606.92	639.83
607.27	636.76
607.62	633.84
607.96	631.06
608.31	628.57
608.66	626.04
609.01	623.57
609.36	621.06
609.70	618.32
610.05	615.41
610.40	612.65
610.75	609.93
611.10	607.53
611.44	604.86
611.79	602.43
612.14	599.78
612.49	597.08
612.83	594.61
613.18	592.17
613.53	589.73
613.88	587.18
614.22	584.85
614.57	582.36
614.92	579.89
615.27	577.54
615.61	575.07
615.96	572.60
616.31	570.11
616.65	567.57
617.00	565.18
617.35	562.85
617.70	560.47
618.04	558.12
618.39	555.62
618.74	553.45
619.08	551.02
619.43	548.75
619.78	546.54
620.12	544.17
620.47	542.03
620.82	539.76
621.16	537.53
621.51	535.24
621.85	532.97
622.20	530.68
622.55	528.44
622.89	526.24
623.24	524.08
623.59	521.96
623.93	519.92
624.28	517.92
624.62	516.02
624.97	514.07
625.32	511.96
625.66	509.71
626.01	507.42
626.35	505.32
626.70	503.14
627.04	501.05
627.39	498.95
627.73	496.86
628.08	494.93
628.43	493.02
628.77	491.10
629.12	489.24
629.46	487.42
629.81	485.57
630.15	483.55
630.50	481.63
630.84	479.71
631.19	477.82
631.53	476.02
631.88	474.11
632.22	472.16
632.57	470.56
632.91	468.95
633.26	467.27
633.60	465.52
633.95	463.89
634.29	462.21
634.64	460.49
634.98	458.56
635.32	456.77
635.67	455.09
636.01	453.37
636.36	451.64
636.70	450.06
637.05	448.28
637.39	446.71
637.73	445.06
638.08	443.48
638.42	441.93
638.77	440.19
639.11	438.38
639.45	436.70
639.80	434.87
640.14	433.16
640.49	431.46
640.83	429.83
641.17	428.12
641.52	426.40
641.86	424.76
642.20	423.32
642.55	421.64
642.89	419.93
643.23	418.35
643.58	417.04
643.92	415.45
644.26	413.98
644.61	412.46
644.95	410.92
645.29	409.26
645.64	407.58
645.98	406.02
646.32	404.60
646.66	403.09
647.01	401.64
647.35	400.24
647.69	398.83
648.04	397.35
648.38	395.89
648.72	394.49
649.06	393.02
649.41	391.49
649.75	390.05
650.09	388.70
650.43	387.22
650.78	385.64
651.12	384.19
651.46	382.66
651.80	381.22
652.14	379.83
652.49	378.56
652.83	377.24
653.17	375.87
653.51	374.58
653.85	373.41
654.20	372.12
654.54	370.74
654.88	369.39
655.22	368.17
655.56	366.92
655.90	365.64
656.25	364.39
656.59	363.17
656.93	362.03
657.27	360.88
657.61	359.68
657.95	358.57
658.29	357.41
658.64	356.34
658.98	355.18
659.32	354.01
659.66	352.85
660.00	351.74
660.34	350.65
660.68	349.43
661.02	348.15
661.36	346.96
661.70	345.85
662.05	344.81
662.39	343.76
662.73	342.80
663.07	341.85
663.41	340.88
663.75	339.87
664.09	338.84
664.43	337.74
664.77	336.73
665.11	335.63
665.45	334.63
665.79	333.65
666.13	332.66
666.47	331.70
666.81	330.73
667.15	329.69
667.49	328.77
667.83	327.92
668.17	327.01
668.51	326.12
668.85	325.28
669.19	324.47
669.53	323.52
669.87	322.53
670.21	321.64
670.55	320.79
670.89	320.04
671.23	319.27
671.57	318.48
671.91	317.76
672.25	317.04
672.58	316.31
672.92	315.53
673.26	314.76
673.60	313.97
673.94	313.17
674.28	312.46
674.62	311.74
674.96	310.99
675.30	310.33
675.64	309.70
675.97	308.97
676.31	308.22
676.65	307.48
676.99	306.87
677.33	306.11
677.67	305.38
678.01	304.56
678.34	303.80
678.68	303.11
679.02	302.39
679.36	301.73
679.70	301.00
680.04	300.29
680.37	299.63
680.71	299.03
681.05	298.47
681.39	297.83
681.73	297.13
682.06	296.45
682.40	295.81
682.74	295.13
683.08	294.58
683.42	293.97
683.75	293.42
684.09	292.73
684.43	292.13
684.77	291.50
685.10	290.96
685.44	290.39
685.78	289.81
686.12	289.25
686.45	288.64
686.79	288.05
687.13	287.51
687.46	286.88
687.80	286.32
688.14	285.70
688.48	285.18
688.81	284.67
689.15	284.20
689.49	283.64
689.82	283.05
690.16	282.40
690.50	281.82
690.83	281.26
691.17	280.65
691.51	280.13
691.84	279.64
692.18	279.08
692.52	278.52
692.85	277.99
693.19	277.52
693.52	277.00
693.86	276.48
694.20	275.97
694.53	275.54
694.87	275.00
695.21	274.51
695.54	274.00
695.88	273.46
696.21	272.92
696.55	272.44
696.88	272.01
697.22	271.53
697.56	271.09
697.89	270.58
698.23	270.17
698.56	269.69
698.90	269.24
699.23	268.79
699.57	268.37
699.90	267.92
700.24	267.42
700.58	267.00
700.91	266.63
701.25	266.35
701.58	266.01
701.92	265.63
702.25	265.24
702.59	264.78
702.92	264.36
703.26	263.94
703.59	263.56
703.93	263.27
704.26	262.92
704.60	262.52
704.93	262.14
705.26	261.71
705.60	261.37
705.93	260.95
706.27	260.64
706.60	260.31
706.94	260.03
707.27	259.65
707.61	259.30
707.94	258.91
708.27	258.43
708.61	257.99
708.94	257.64
709.28	257.30
709.61	256.98
709.94	256.71
710.28	256.41
710.61	256.12
710.95	255.71
711.28	255.52
711.61	255.23
711.95	254.98
712.28	254.73
712.61	254.42
712.95	254.27
713.28	254.05
713.61	253.76
713.95	253.43
714.28	253.21
714.61	252.96
714.95	252.71
715.28	252.43
715.61	252.20
715.95	252.00
716.28	251.79
716.61	251.60
716.95	251.35
717.28	251.14
717.61	250.92
717.94	250.68
718.28	250.34
718.61	250.13
718.94	249.89
719.27	249.66
719.61	249.44
719.94	249.18
720.27	248.91
720.60	248.67
720.94	248.48
721.27	248.30
721.60	248.14
721.93	247.95
722.27	247.82
722.60	247.66
722.93	247.42
723.26	247.23
723.59	247.00
723.93	246.84
724.26	246.68
724.59	246.49
724.92	246.31
725.25	246.22
725.59	246.04
725.92	245.89
726.25	245.74
726.58	245.60
726.91	245.42
727.24	245.27
727.57	245.13
727.91	244.93
728.24	244.77
728.57	244.56
728.90	244.44
729.23	244.22
729.56	244.16
729.89	244.00
730.22	243.84
730.55	243.71
730.89	243.56
731.22	243.38
731.55	243.22
731.88	243.05
732.21	242.86
732.54	242.70
732.87	242.55
733.20	242.40
733.53	242.27
733.86	242.13
734.19	241.96
734.52	241.84
734.85	241.81
735.18	241.62
735.51	241.55
735.84	241.41
736.17	241.31
736.50	241.06
736.83	241.13
737.16	241.00
737.49	240.84
737.82	240.69
738.15	240.56
738.48	240.43
738.81	240.29
739.14	240.11
739.47	239.96
739.80	239.81
740.13	239.67
740.46	239.49
740.79	239.33
741.12	239.18
741.45	239.02
741.78	238.80
742.11	238.72
742.44	238.55
742.77	238.43
743.10	238.32
743.43	238.18
743.75	237.88
744.08	238.03
744.41	237.93
744.74	237.80
745.07	237.67
745.40	237.58
745.73	237.56
746.06	237.47
746.39	237.38
746.71	237.26
747.04	237.13
747.37	237.05
747.70	237.00
748.03	236.91
748.36	236.85
748.68	236.77
749.01	236.64
749.34	236.55
749.67	236.47
750.00	236.37
750.33	236.41
750.65	236.32
750.98	235.97
751.31	235.88
751.64	235.80
751.97	235.82
752.29	235.71
752.62	235.54
752.95	235.42
753.28	235.31
753.60	235.26
753.93	235.23
754.26	235.18
754.59	235.03
754.91	234.91
755.24	234.78
755.57	234.77
755.90	234.69
756.22	234.60
756.55	234.50
756.88	234.40
757.20	234.21
757.53	234.13
757.86	234.06
758.19	233.98
758.51	233.92
758.84	233.75
759.17	233.67
759.49	233.61
759.82	233.69
760.15	233.66
760.47	233.61
760.80	233.51
761.13	233.45
761.45	233.39
761.78	233.35
762.11	233.36
762.43	233.22
762.76	233.16
763.08	233.15
763.41	233.10
763.74	233.06
764.06	233.00
764.39	232.95
764.71	232.89
765.04	232.84
765.37	232.78
765.69	232.73
766.02	232.69
766.34	232.63
766.67	232.50
767.00	232.47
767.32	232.51
767.65	232.58
767.97	232.53
768.30	232.53
768.62	232.48
768.95	232.40
769.27	232.34
769.60	232.32
769.92	232.23
770.25	232.17
770.57	232.08
770.90	232.05
771.22	231.99
771.55	231.95
771.87	231.91
772.20	231.86
772.52	231.98
772.85	232.16
773.17	232.12
773.50	232.07
773.82	232.01
774.15	231.88
774.47	231.70
774.80	231.62
775.12	231.56
775.45	231.52
775.77	231.50
776.09	231.48
776.42	231.45
776.74	231.45
777.07	231.39
777.39	231.37
777.72	231.30
778.04	231.31
778.36	231.24
778.69	231.21
779.01	231.20
779.33	231.00
779.66	230.74
779.98	230.69
780.31	230.64
780.63	230.67
780.95	230.66
781.28	230.64
781.60	230.59
781.92	230.56
782.25	230.52
782.57	230.46
782.89	230.41
783.22	230.35
783.54	230.28
783.86	230.28
784.19	230.23
784.51	230.26
784.83	230.19
785.16	230.16
785.48	230.12
785.80	230.09
786.12	230.09
786.45	230.06
786.77	230.03
787.09	230.02
787.42	229.93
787.74	229.90
788.06	229.87
788.38	229.85
788.71	229.81
789.03	229.79
789.35	229.81
789.67	229.74
789.99	229.72
790.32	229.66
790.64	229.64
790.96	229.79
791.28	229.70
791.61	229.67
791.93	229.66
792.25	229.62
792.57	229.70
792.89	229.65
793.21	229.66
793.54	229.63
793.86	229.58
794.18	229.58
794.50	229.53
794.82	229.51
795.14	229.52
795.47	229.54
795.79	229.52
796.11	229.46
796.43	229.48
796.75	229.47
797.07	229.50
797.39	229.48
797.71	229.33
798.04	229.34
798.36	229.34
798.68	229.33
799.00	229.35
799.32	229.27
799.64	229.28
799.96	229.28
800.28	229.32
800.60	229.32
800.92	229.29
801.24	229.29
801.56	229.31
801.89	229.29
802.21	229.29
802.53	229.26
802.85	229.31
803.17	229.36
803.49	229.35
803.81	229.33
804.13	229.34
804.45	229.31
804.77	229.33
805.09	229.33
805.41	229.31
805.73	229.28
806.05	229.23
806.37	229.21
806.69	229.16
807.01	229.13
807.33	229.14
807.65	229.08
807.97	229.16
808.28	229.10
808.60	229.09
808.92	229.05
809.24	229.16
809.56	229.12
809.88	229.07
810.20	229.04
810.52	229.07
810.84	229.01
811.16	228.99
811.48	228.96
811.80	229.02
812.12	228.99
812.43	229.02
812.75	229.02
813.07	229.00
813.39	229.04
813.71	229.01
814.03	228.98
814.35	229.00
814.67	228.94
814.98	228.94
815.30	228.93
815.62	228.90
815.94	228.76
816.26	228.78
816.58	228.74
816.89	228.73
817.21	228.69
817.53	228.70
817.85	228.72
818.17	228.72
818.48	228.63
818.80	228.65
819.12	228.60
819.44	228.54
819.76	228.49
820.07	228.44
820.39	228.41
820.71	228.42
821.03	228.40
821.34	228.35
821.66	228.35
821.98	228.36
822.30	228.34
822.61	228.46
822.93	228.42
823.25	228.40
823.57	228.40
823.88	228.41
824.20	228.40
824.52	228.41
824.83	228.35
825.15	228.33
825.47	228.32
825.79	228.33
826.10	228.33
826.42	228.33
826.74	228.34
827.05	228.34
827.37	228.33
827.69	228.31
828.00	228.33
828.32	228.32
828.64	228.27
828.95	228.37
829.27	228.27
829.58	228.26
829.90	228.27
830.22	228.26
830.53	228.20
830.85	228.19
831.17	228.14
831.48	228.15
831.80	228.15
832.11	228.16
832.43	228.11
832.75	228.10
833.06	228.20
833.38	228.15
833.69	228.15
834.01	228.14
834.32	228.15
834.64	228.12
834.96	228.11
835.27	228.09
835.59	228.02
835.90	228.00
836.22	227.97
836.53	227.94
836.85	227.93
837.16	228.11
837.48	228.09
837.79	228.15
838.11	228.15
838.42	228.13
838.74	228.15
839.05	228.13
839.37	228.13
839.68	228.03
840.00	228.04
840.31	228.05
840.63	228.05
840.94	228.02
841.26	228.00
841.57	228.00
841.88	228.05
842.20	228.02
842.51	227.99
842.83	227.99
843.14	228.17
843.46	228.16
843.77	228.07
844.08	228.09
844.40	228.02
844.71	228.00
845.03	228.02
845.34	228.01
845.65	228.01
845.97	228.02
846.28	228.04
846.60	228.03
846.91	228.01
847.22	227.99
847.54	228.04
847.85	228.07
848.16	228.07
848.48	228.01
848.79	228.10
849.10	228.14
849.42	228.16
849.73	227.99
850.04	227.99
850.36	227.91
850.67	227.95
850.98	227.97
851.30	227.98
851.61	227.94
851.92	227.93
852.23	228.01
852.55	228.03
852.86	228.01
853.17	228.02
853.49	228.06
853.80	228.10
854.11	228.09
854.42	228.10
854.74	228.07
855.05	228.08
855.36	227.99
855.67	227.99
855.99	227.97
856.30	228.18
856.61	228.17
856.92	228.18
857.23	228.15
857.55	228.11
857.86	228.10
858.17	228.13
858.48	228.10
858.79	228.03
859.11	228.02
859.42	228.01
859.73	227.99
860.04	227.97
860.35	227.92
860.66	227.87
860.98	227.85
861.29	227.86
861.60	227.85
861.91	227.89
862.22	227.84
862.53	227.83
862.84	227.60
863.16	227.63
863.47	227.59
863.78	227.58
864.09	227.58
864.40	227.57
864.71	227.58
865.02	227.60
865.33	227.58
865.64	227.53
865.95	227.52
866.27	227.62
866.58	227.58
866.89	227.62
867.20	227.61
867.51	227.57
867.82	227.56
868.13	227.60
868.44	227.55
868.75	227.60
869.06	227.59
869.37	227.60
869.68	227.52
869.99	227.57
870.30	227.55
870.61	227.59
870.92	227.58
871.23	227.55
871.54	227.54
871.85	227.56
872.16	227.62
872.47	227.60
872.78	227.48
873.09	227.50
873.40	227.46
873.71	227.48
874.02	227.49
874.33	227.47
874.64	227.43
874.95	227.47
875.26	227.42
875.56	227.42
875.87	227.41
876.18	227.45
876.49	227.60
876.80	227.61
877.11	227.58
877.42	227.59
877.73	227.60
878.04	227.60
878.35	227.59
878.66	227.60
878.96	227.62
879.27	227.65
879.58	227.63
879.89	227.64
880.20	227.71
880.51	227.73
880.82	227.73
881.12	227.73
881.43	227.70
881.74	227.69
882.05	227.69
882.36	227.71
882.67	227.70
882.97	227.51
883.28	227.50
883.59	227.49
883.90	227.49
884.21	227.51
884.51	227.48
884.82	227.46
885.13	227.46
885.44	227.48
885.74	227.46
886.05	227.47
886.36	227.46
886.67	227.39
886.98	227.51
887.28	227.53
887.59	227.55
887.90	227.56
888.20	227.56
888.51	227.59
888.82	227.56
889.13	227.59
889.43	227.77
889.74	227.76
890.05	227.77
890.35	227.78
890.66	227.77
890.97	227.76
891.28	227.79
891.58	227.77
891.89	227.77
892.20	227.77
892.50	227.74
892.81	227.73
893.12	227.71
893.42	227.58
893.73	227.58
894.04	227.58
894.34	227.56
894.65	227.55
894.95	227.53
895.26	227.54
895.57	227.60
895.87	227.41
896.18	227.44
896.48	227.44
896.79	227.41
897.10	227.40
897.40	227.42
897.71	227.40
898.01	227.40
898.32	227.40
898.63	227.39
898.93	227.41
899.24	227.42
899.54	227.41
899.85	227.42
900.15	227.40
900.46	227.40
900.76	227.44
901.07	227.44
901.38	227.44
901.68	227.46
901.99	227.36
902.29	227.39
902.60	227.38
902.90	227.35
903.21	227.36
903.51	227.36
903.82	227.38
904.12	227.36
904.43	227.37
904.73	227.37
905.03	227.38
905.34	227.54
905.64	227.49
905.95	227.48
906.25	227.48
906.56	227.48
906.86	227.45
907.17	227.41
907.47	227.43
907.77	227.42
908.08	227.39
908.38	227.39
908.69	227.37
908.99	227.41
909.30	227.43
909.60	227.43
909.90	227.46
910.21	227.43
910.51	227.43
910.81	227.42
911.12	227.43
911.42	227.43
911.73	227.25
912.03	227.31
912.33	227.35
912.64	227.35
912.94	227.34
913.24	227.33
913.55	227.33
913.85	227.31
914.15	227.34
914.46	227.38
914.76	227.40
915.06	227.39
915.37	227.36
915.67	227.34
915.97	227.36
916.27	227.31
916.58	227.32
916.88	227.32
917.18	227.32
917.49	227.43
917.79	227.44
918.09	227.49
918.39	227.54
918.70	227.54
919.00	227.54
919.30	227.61
919.60	227.63
919.91	227.64
920.21	227.65
920.51	227.62
920.81	227.61
921.12	227.62
921.42	227.63
921.72	227.63
922.02	227.66
922.32	227.69
922.63	227.70
922.93	227.78
923.23	227.80
923.53	227.78
923.83	227.67
924.13	227.69
924.44	227.67
924.74	227.69
925.04	227.71
925.34	227.71
925.64	227.64
925.94	227.65
926.24	227.74
926.55	227.74
926.85	227.78
927.15	227.78
927.45	227.77
927.75	227.76
928.05	227.77
928.35	227.76
928.65	227.74
928.95	227.76
929.26	227.67
929.56	227.69
929.86	227.72
930.16	227.71
930.46	227.70
930.76	227.69
931.06	227.60
931.36	227.55
931.66	227.56
931.96	227.59
932.26	227.57
932.56	227.49
932.86	227.50
933.16	227.49
933.46	227.44
933.76	227.40
934.06	227.43
934.36	227.48
934.66	227.46
934.96	227.45
935.26	227.47
935.56	227.49
935.86	227.44
936.16	227.39
936.46	227.37
936.76	227.37
937.06	227.34
937.36	227.36
937.66	227.38
937.96	227.37
938.26	227.31
938.56	227.30
938.86	227.29
939.16	227.33
939.46	227.34
939.76	227.37
940.06	227.39
940.35	227.33
940.65	227.25
940.95	227.27
941.25	227.25
941.55	227.20
941.85	227.22
942.15	227.24
942.45	227.31
942.75	227.29
943.04	227.28
943.34	227.33
943.64	227.29
943.94	227.26
944.24	227.26
944.54	227.32
944.84	227.31
945.13	227.30
945.43	227.24
945.73	227.23
946.03	227.22
946.33	227.19
946.62	227.18
946.92	227.18
947.22	227.21
947.52	227.21
947.82	227.22
948.11	227.18
948.41	227.14
948.71	227.07
949.01	227.08
949.31	227.04
949.60	227.03
949.90	227.09
950.20	227.06
950.50	227.08
950.79	227.04
951.09	227.08
951.39	227.09
951.69	227.07
951.98	227.10
952.28	227.13
952.58	227.13
952.87	227.15
953.17	227.15
953.47	227.12
953.76	227.11
954.06	227.08
954.36	227.08
954.66	227.10
954.95	227.17
955.25	227.21
955.55	227.24
955.84	227.21
956.14	227.21
956.44	227.25
956.73	227.22
957.03	227.24
957.32	227.23
957.62	227.23
957.92	227.27
958.21	227.25
958.51	227.44
958.81	227.46
959.10	227.48
959.40	227.53
959.69	227.55
959.99	227.60
960.29	227.62
960.58	227.60
960.88	227.68
961.17	227.65
961.47	227.65
961.76	227.62
962.06	227.65
962.36	227.64
962.65	227.66
962.95	227.66
963.24	227.64
963.54	227.65
963.83	227.65
964.13	227.64
964.42	227.62
964.72	227.47
965.01	227.46
965.31	227.46
965.60	227.43
965.90	227.54
966.19	227.48
966.49	227.49
966.78	227.48
967.08	227.43
967.37	227.42
967.67	227.40
967.96	227.45
968.26	227.44
968.55	227.44
968.85	227.43
969.14	227.44
969.43	227.43
969.73	227.41
970.02	227.38
970.32	227.37
970.61	227.35
970.91	227.28
971.20	227.26
971.49	227.22
971.79	227.25
972.08	227.11
972.38	227.12
972.67	227.11
972.96	227.15
973.26	227.14
973.55	227.19
973.85	227.17
974.14	227.15
974.43	227.16
974.73	227.10
975.02	227.07
975.31	227.07
975.61	227.08
975.90	227.08
976.19	227.07
976.49	227.09
976.78	227.10
977.07	227.14
977.37	227.15
977.66	227.17
977.95	227.13
978.24	227.15
978.54	227.19
978.83	227.17
979.12	227.16
979.42	227.12
979.71	227.08
980.00	227.08
980.29	227.09
980.59	227.07
980.88	227.13
981.17	227.14
981.46	227.14
981.76	227.15
982.05	227.21
982.34	227.22
982.63	227.22
982.93	227.23
983.22	227.26
983.51	227.26
983.80	227.28
984.09	227.33
984.39	227.34
984.68	227.32
984.97	227.34
985.26	227.31
985.55	227.36
985.85	227.33
986.14	227.36
986.43	227.40
986.72	227.37
987.01	227.35
987.30	227.34
987.59	227.34
987.89	227.35
988.18	227.28
988.47	227.29
988.76	227.27
989.05	227.28
989.34	227.25
989.63	227.30
989.92	227.27
990.22	227.24
990.51	227.23
990.80	227.24
991.09	227.26
991.38	227.31
991.67	227.27
991.96	227.28
992.25	227.29
992.54	227.23
992.83	227.26
993.12	227.26
993.41	227.28
993.70	227.36
993.99	227.39
994.28	227.41
994.58	227.43
994.87	227.40
995.16	227.40
995.45	227.37
995.74	227.30
996.03	227.35
996.32	227.39
996.61	227.41
996.90	227.39
997.19	227.36
997.48	227.35
997.77	227.35
998.06	227.34
998.34	227.31
998.63	227.34
998.92	227.35
999.21	227.37
999.50	227.38
999.79	227.31
1000.08	227.30
1000.37	227.30
1000.66	227.25
1000.95	227.30
1001.24	227.31
1001.53	227.34
1001.82	227.37
1002.11	227.31
1002.40	227.33
1002.68	227.39
1002.97	227.52
1003.26	227.52
1003.55	227.50
1003.84	227.52
1004.13	227.59
1004.42	227.60
1004.71	227.58
1004.99	227.54
1005.28	227.56
1005.57	227.55
1005.86	227.53
1006.15	227.53
1006.44	227.51
1006.72	227.56
1007.01	227.53
1007.30	227.54
1007.59	227.54
1007.88	227.52
1008.17	227.54
1008.45	227.47
1008.74	227.37
1009.03	227.28
1009.32	227.26
1009.60	227.24
1009.89	227.23
1010.18	227.15
1010.47	227.12
1010.76	227.13
1011.04	227.15
1011.33	227.12
1011.62	227.15
1011.91	227.16
1012.19	227.15
1012.48	227.16
1012.77	227.14
1013.05	227.20
1013.34	227.18
1013.63	227.14
1013.92	227.14
1014.20	227.10
1014.49	227.14
1014.78	227.16
1015.06	227.09
1015.35	227.09
1015.64	227.14
1015.92	227.15
1016.21	227.16
1016.50	227.19
1016.78	227.23
1017.07	227.22
1017.36	227.21
1017.64	227.17
1017.93	227.18
1018.22	227.16
1018.50	227.15
1018.79	227.14
1019.08	227.07
1019.36	227.09
1019.65	227.09
1019.93	227.14
1020.22	227.19
1020.51	227.27
1020.79	227.25
1021.08	227.01
1021.36	226.84
1021.65	226.85
1021.94	227.02
1022.22	227.32
1022.51	226.92
1022.79	228.08
1023.08	227.38
1023.36	229.34
1023.65	226.66
>>>>>End Processed Spectral Data<<<<<
