SpectraSuite Data File
++++++++++++++++++++++++++++++++++++
Date: Sun Sep 13 18:40:39 EDT 2015
User: lab3
Dark Spectrum Present: No
Reference Spectrum Present: No
Number of Sampled Component Spectra: 1
Spectrometers: USB2E7196
Integration Time (usec): 65000 (USB2E7196)
Spectra Averaged: 200 (USB2E7196)
Boxcar Smoothing: 10 (USB2E7196)
Correct for Electrical Dark: No (USB2E7196)
Strobe/Lamp Enabled: No (USB2E7196)
Correct for Detector Non-linearity: No (USB2E7196)
Correct for Stray Light: No (USB2E7196)
Number of Pixels in Processed Spectrum: 2048
>>>>>Begin Processed Spectral Data<<<<<
339.09	0.00
339.48	215.18
339.86	216.78
340.24	218.40
340.63	219.79
341.01	223.88
341.39	222.56
341.78	223.71
342.16	225.34
342.54	225.25
342.93	213.86
343.31	224.67
343.69	225.21
344.07	225.67
344.46	226.12
344.84	226.49
345.22	226.63
345.60	226.88
345.99	227.05
346.37	227.15
346.75	227.27
347.13	227.34
347.52	227.40
347.90	227.51
348.28	227.52
348.66	227.57
349.05	227.51
349.43	227.58
349.81	227.61
350.19	227.64
350.57	227.68
350.96	227.76
351.34	227.83
351.72	227.91
352.10	228.01
352.48	228.04
352.87	228.08
353.25	228.19
353.63	228.24
354.01	228.31
354.39	228.39
354.77	228.45
355.15	228.54
355.54	228.57
355.92	228.56
356.30	228.65
356.68	228.83
357.06	228.93
357.44	228.94
357.82	229.00
358.20	229.24
358.58	229.32
358.97	229.37
359.35	229.47
359.73	229.57
360.11	229.60
360.49	229.69
360.87	229.74
361.25	229.78
361.63	229.87
362.01	229.89
362.39	229.91
362.77	229.97
363.15	229.98
363.53	230.01
363.91	230.04
364.29	230.05
364.67	229.91
365.05	229.90
365.43	229.94
365.81	229.96
366.19	229.88
366.57	229.92
366.95	229.91
367.33	229.84
367.71	229.79
368.09	229.78
368.47	229.71
368.85	229.67
369.23	229.65
369.61	229.56
369.99	229.60
370.37	229.56
370.75	229.62
371.13	229.54
371.51	229.47
371.89	229.42
372.27	229.36
372.65	229.31
373.03	229.24
373.41	229.15
373.78	229.07
374.16	228.90
374.54	228.76
374.92	228.67
375.30	228.59
375.68	228.49
376.06	228.43
376.44	228.35
376.82	228.26
377.19	228.19
377.57	228.08
377.95	227.92
378.33	227.82
378.71	227.58
379.09	227.51
379.47	227.43
379.84	227.32
380.22	227.21
380.60	227.10
380.98	227.01
381.36	226.92
381.73	226.82
382.11	226.78
382.49	226.72
382.87	226.62
383.25	226.53
383.62	226.66
384.00	226.57
384.38	226.48
384.76	226.46
385.13	226.45
385.51	226.39
385.89	226.31
386.27	226.26
386.64	226.25
387.02	226.19
387.40	226.12
387.78	226.11
388.15	226.08
388.53	226.01
388.91	225.99
389.29	225.96
389.66	225.92
390.04	225.89
390.42	225.90
390.79	225.90
391.17	225.90
391.55	225.70
391.92	225.68
392.30	225.74
392.68	225.70
393.05	225.68
393.43	225.73
393.81	225.78
394.18	225.76
394.56	225.81
394.94	225.89
395.31	225.94
395.69	226.03
396.06	226.09
396.44	226.20
396.82	226.24
397.19	226.41
397.57	226.48
397.95	226.59
398.32	226.62
398.70	226.73
399.07	226.89
399.45	226.99
399.82	227.14
400.20	227.23
400.58	227.37
400.95	227.42
401.33	227.59
401.70	227.87
402.08	228.09
402.45	228.25
402.83	228.47
403.20	228.66
403.58	228.82
403.95	229.08
404.33	229.31
404.71	229.53
405.08	229.86
405.46	230.12
405.83	230.39
406.21	230.67
406.58	230.96
406.96	231.24
407.33	231.57
407.70	231.91
408.08	232.41
408.45	232.83
408.83	233.30
409.20	233.70
409.58	234.04
409.95	234.52
410.33	235.02
410.70	235.46
411.08	236.05
411.45	236.63
411.82	237.20
412.20	237.86
412.57	238.68
412.95	239.24
413.32	240.06
413.69	240.86
414.07	241.72
414.44	242.65
414.82	243.60
415.19	244.72
415.56	245.84
415.94	246.98
416.31	248.30
416.68	249.63
417.06	251.15
417.43	252.59
417.81	254.22
418.18	255.88
418.55	257.71
418.93	259.56
419.30	261.54
419.67	263.68
420.04	265.82
420.42	268.05
420.79	270.70
421.16	273.33
421.54	276.04
421.91	278.84
422.28	281.76
422.66	284.88
423.03	287.89
423.40	291.05
423.77	294.42
424.15	297.85
424.52	301.41
424.89	305.31
425.26	309.14
425.64	312.72
426.01	316.76
426.38	320.90
426.75	325.21
427.13	329.58
427.50	334.13
427.87	338.92
428.24	343.72
428.61	348.30
428.99	353.30
429.36	358.81
429.73	364.09
430.10	369.38
430.47	374.79
430.85	380.34
431.22	386.31
431.59	392.51
431.96	398.53
432.33	405.20
432.70	411.53
433.08	419.10
433.45	426.27
433.82	433.34
434.19	441.26
434.56	449.03
434.93	456.58
435.30	464.07
435.68	472.59
436.05	480.94
436.42	489.26
436.79	496.91
437.16	505.11
437.53	513.98
437.90	522.80
438.27	531.48
438.64	540.82
439.01	549.32
439.38	557.12
439.75	564.64
440.13	573.17
440.50	581.27
440.87	587.70
441.24	594.77
441.61	602.42
441.98	608.03
442.35	614.71
442.72	621.57
443.09	628.05
443.46	632.22
443.83	635.30
444.20	637.94
444.57	641.65
444.94	643.85
445.31	646.10
445.68	648.12
446.05	649.48
446.42	649.23
446.79	648.80
447.16	648.32
447.53	647.95
447.90	645.39
448.27	642.93
448.64	639.23
449.01	636.67
449.37	631.40
449.74	626.62
450.11	620.48
450.48	613.58
450.85	606.70
451.22	600.79
451.59	595.05
451.96	589.79
452.33	582.25
452.70	575.52
453.07	567.31
453.43	559.03
453.80	551.11
454.17	543.44
454.54	536.32
454.91	528.36
455.28	520.90
455.65	513.83
456.02	506.49
456.38	500.42
456.75	492.62
457.12	486.36
457.49	480.08
457.86	474.06
458.23	468.95
458.59	463.24
458.96	457.39
459.33	452.26
459.70	447.05
460.07	443.11
460.43	438.41
460.80	434.00
461.17	430.21
461.54	426.09
461.91	422.21
462.27	418.25
462.64	415.01
463.01	411.32
463.38	407.65
463.74	404.20
464.11	401.24
464.48	398.57
464.85	395.67
465.21	393.47
465.58	391.02
465.95	388.14
466.32	385.86
466.68	383.66
467.05	381.43
467.42	379.21
467.78	376.87
468.15	374.73
468.52	373.16
468.88	371.03
469.25	369.07
469.62	367.54
469.98	365.86
470.35	364.35
470.72	362.95
471.08	361.50
471.45	360.28
471.82	358.96
472.18	357.55
472.55	356.64
472.92	355.47
473.28	354.56
473.65	353.61
474.02	352.73
474.38	351.90
474.75	351.38
475.11	350.71
475.48	350.33
475.85	349.92
476.21	349.62
476.58	349.41
476.94	349.45
477.31	349.36
477.67	349.31
478.04	349.40
478.41	349.62
478.77	350.00
479.14	350.19
479.50	350.65
479.87	351.27
480.23	351.83
480.60	352.37
480.96	352.93
481.33	353.81
481.69	354.65
482.06	355.45
482.42	356.21
482.79	357.20
483.15	358.37
483.52	359.76
483.88	361.02
484.25	362.37
484.61	363.75
484.98	365.30
485.34	367.09
485.71	368.95
486.07	370.85
486.44	372.71
486.80	374.84
487.17	376.98
487.53	379.38
487.90	381.92
488.26	384.74
488.62	387.70
488.99	390.58
489.35	393.67
489.72	396.99
490.08	400.48
490.44	404.01
490.81	407.67
491.17	411.39
491.54	415.40
491.90	419.55
492.26	424.00
492.63	428.52
492.99	433.25
493.36	437.98
493.72	443.06
494.08	448.22
494.45	453.66
494.81	459.32
495.17	465.07
495.54	471.15
495.90	477.39
496.26	483.71
496.63	490.16
496.99	496.84
497.35	503.81
497.72	510.94
498.08	518.19
498.44	525.57
498.80	533.41
499.17	541.37
499.53	549.38
499.89	557.65
500.26	566.05
500.62	574.57
500.98	583.70
501.34	592.77
501.71	602.13
502.07	611.56
502.43	621.14
502.79	630.95
503.16	640.96
503.52	650.93
503.88	661.11
504.24	671.58
504.60	682.07
504.97	692.88
505.33	703.75
505.69	715.09
506.05	726.46
506.41	737.66
506.78	748.85
507.14	760.43
507.50	772.16
507.86	784.05
508.22	795.92
508.59	807.53
508.95	819.58
509.31	831.84
509.67	844.47
510.03	857.09
510.39	869.52
510.75	881.76
511.12	894.14
511.48	906.54
511.84	918.89
512.20	931.32
512.56	943.92
512.92	956.52
513.28	968.76
513.64	981.03
514.00	993.44
514.37	1005.99
514.73	1018.18
515.09	1030.18
515.45	1042.15
515.81	1054.05
516.17	1065.64
516.53	1076.91
516.89	1087.98
517.25	1098.90
517.61	1109.74
517.97	1120.66
518.33	1131.26
518.69	1141.69
519.05	1152.18
519.41	1162.62
519.77	1173.05
520.13	1182.65
520.49	1192.18
520.85	1201.67
521.21	1210.99
521.57	1220.29
521.93	1228.83
522.29	1237.79
522.65	1246.31
523.01	1254.63
523.37	1262.52
523.73	1270.67
524.09	1278.58
524.45	1286.29
524.81	1293.59
525.17	1300.86
525.53	1307.57
525.89	1314.30
526.25	1320.89
526.61	1326.80
526.97	1332.48
527.33	1337.97
527.68	1343.76
528.04	1349.01
528.40	1353.98
528.76	1358.80
529.12	1363.28
529.48	1368.04
529.84	1371.44
530.20	1375.08
530.56	1378.32
530.91	1381.74
531.27	1385.09
531.63	1388.08
531.99	1390.73
532.35	1392.65
532.71	1394.60
533.07	1396.86
533.42	1398.24
533.78	1399.93
534.14	1401.51
534.50	1402.94
534.86	1404.45
535.21	1404.62
535.57	1405.03
535.93	1405.17
536.29	1404.98
536.65	1404.59
537.00	1403.73
537.36	1403.69
537.72	1402.66
538.08	1401.65
538.44	1400.25
538.79	1398.58
539.15	1396.13
539.51	1393.72
539.87	1391.41
540.22	1387.95
540.58	1384.82
540.94	1382.06
541.29	1378.50
541.65	1374.78
542.01	1371.01
542.37	1366.34
542.72	1362.62
543.08	1358.28
543.44	1354.08
543.79	1349.57
544.15	1344.84
544.51	1340.12
544.87	1334.90
545.22	1329.87
545.58	1324.51
545.94	1319.09
546.29	1313.45
546.65	1308.26
547.01	1302.75
547.36	1297.55
547.72	1292.64
548.07	1286.89
548.43	1281.03
548.79	1275.22
549.14	1269.66
549.50	1263.99
549.86	1258.40
550.21	1252.10
550.57	1246.17
550.92	1239.87
551.28	1233.51
551.64	1227.29
551.99	1221.23
552.35	1215.19
552.70	1209.19
553.06	1203.34
553.41	1197.47
553.77	1191.40
554.13	1185.27
554.48	1179.20
554.84	1172.76
555.19	1166.44
555.55	1160.37
555.90	1154.21
556.26	1148.28
556.61	1142.03
556.97	1135.39
557.32	1128.89
557.68	1122.62
558.03	1116.25
558.39	1110.06
558.74	1104.44
559.10	1098.35
559.45	1092.33
559.81	1086.34
560.16	1080.29
560.52	1074.39
560.87	1068.84
561.23	1063.03
561.58	1057.48
561.94	1051.70
562.29	1045.88
562.64	1040.38
563.00	1034.58
563.35	1029.14
563.71	1023.57
564.06	1018.17
564.42	1012.87
564.77	1007.66
565.12	1002.72
565.48	997.84
565.83	993.09
566.19	988.12
566.54	983.22
566.89	977.96
567.25	972.92
567.60	968.24
567.96	963.57
568.31	958.43
568.66	953.41
569.02	948.57
569.37	944.18
569.72	940.02
570.08	935.65
570.43	931.29
570.78	926.81
571.14	922.25
571.49	917.69
571.84	913.45
572.20	908.96
572.55	904.57
572.90	899.97
573.26	895.23
573.61	890.46
573.96	885.87
574.31	881.61
574.67	877.42
575.02	872.87
575.37	868.38
575.72	863.99
576.08	859.73
576.43	855.15
576.78	850.45
577.13	845.94
577.49	841.41
577.84	837.07
578.19	832.55
578.54	828.09
578.90	823.58
579.25	819.05
579.60	814.92
579.95	810.75
580.30	806.94
580.66	803.07
581.01	799.07
581.36	795.28
581.71	791.53
582.06	787.75
582.42	784.11
582.77	780.37
583.12	776.93
583.47	773.62
583.82	770.43
584.17	767.08
584.53	763.72
584.88	760.39
585.23	757.05
585.58	753.84
585.93	750.63
586.28	747.64
586.63	744.62
586.98	741.44
587.34	738.29
587.69	734.73
588.04	731.40
588.39	728.35
588.74	725.13
589.09	722.14
589.44	718.86
589.79	715.93
590.14	713.05
590.49	710.04
590.84	707.02
591.19	704.19
591.54	701.28
591.89	698.29
592.25	695.59
592.60	692.58
592.95	689.82
593.30	687.10
593.65	684.33
594.00	681.57
594.35	679.28
594.70	676.33
595.05	673.92
595.40	671.37
595.75	668.69
596.10	666.20
596.45	663.50
596.80	661.00
597.15	658.37
597.50	655.74
597.85	653.33
598.19	650.89
598.54	648.34
598.89	645.98
599.24	643.75
599.59	641.36
599.94	639.34
600.29	637.20
600.64	634.92
600.99	632.53
601.34	630.26
601.69	627.53
602.04	625.52
602.39	623.29
602.74	621.31
603.08	619.40
603.43	617.30
603.78	615.11
604.13	613.05
604.48	610.90
604.83	608.81
605.18	606.49
605.53	604.32
605.87	602.00
606.22	599.77
606.57	597.46
606.92	595.02
607.27	592.56
607.62	590.19
607.96	588.04
608.31	586.09
608.66	584.07
609.01	582.09
609.36	580.11
609.70	577.95
610.05	575.65
610.40	573.36
610.75	571.17
611.10	569.28
611.44	567.12
611.79	565.13
612.14	562.94
612.49	560.74
612.83	558.70
613.18	556.78
613.53	554.79
613.88	552.70
614.22	550.85
614.57	548.89
614.92	546.92
615.27	544.91
615.61	542.87
615.96	540.86
616.31	538.85
616.65	536.78
617.00	534.83
617.35	532.86
617.70	530.91
618.04	528.91
618.39	526.85
618.74	525.04
619.08	523.03
619.43	521.17
619.78	519.38
620.12	517.48
620.47	515.69
620.82	513.83
621.16	512.04
621.51	510.15
621.85	508.22
622.20	506.26
622.55	504.40
622.89	502.58
623.24	500.77
623.59	499.01
623.93	497.23
624.28	495.53
624.62	493.97
624.97	492.39
625.32	490.64
625.66	488.78
626.01	486.81
626.35	485.02
626.70	483.16
627.04	481.36
627.39	479.52
627.73	477.77
628.08	476.16
628.43	474.45
628.77	472.75
629.12	471.16
629.46	469.66
629.81	468.07
630.15	466.32
630.50	464.66
630.84	462.98
631.19	461.40
631.53	459.85
631.88	458.14
632.22	456.39
632.57	455.04
632.91	453.61
633.26	452.15
633.60	450.64
633.95	449.26
634.29	447.76
634.64	446.24
634.98	444.50
635.32	442.91
635.67	441.45
636.01	439.96
636.36	438.42
636.70	437.01
637.05	435.43
637.39	433.99
637.73	432.49
638.08	431.05
638.42	429.68
638.77	428.12
639.11	426.50
639.45	424.98
639.80	423.35
640.14	421.84
640.49	420.34
640.83	418.85
641.17	417.33
641.52	415.82
641.86	414.33
642.20	413.06
642.55	411.52
642.89	410.04
643.23	408.59
643.58	407.35
643.92	405.92
644.26	404.63
644.61	403.30
644.95	401.85
645.29	400.36
645.64	398.78
645.98	397.38
646.32	396.10
646.66	394.74
647.01	393.36
647.35	392.06
647.69	390.73
648.04	389.35
648.38	387.95
648.72	386.64
649.06	385.32
649.41	383.91
649.75	382.60
650.09	381.27
650.43	379.92
650.78	378.50
651.12	377.11
651.46	375.71
651.80	374.40
652.14	373.17
652.49	371.99
652.83	370.80
653.17	369.50
653.51	368.29
653.85	367.17
654.20	365.95
654.54	364.66
654.88	363.42
655.22	362.36
655.56	361.19
655.90	360.02
656.25	358.86
656.59	357.75
656.93	356.67
657.27	355.65
657.61	354.53
657.95	353.51
658.29	352.44
658.64	351.43
658.98	350.35
659.32	349.26
659.66	348.18
660.00	347.13
660.34	346.16
660.68	345.02
661.02	343.84
661.36	342.77
661.70	341.76
662.05	340.76
662.39	339.77
662.73	338.89
663.07	338.04
663.41	337.13
663.75	336.18
664.09	335.22
664.43	334.20
664.77	333.29
665.11	332.25
665.45	331.32
665.79	330.38
666.13	329.44
666.47	328.53
666.81	327.62
667.15	326.63
667.49	325.78
667.83	324.99
668.17	324.16
668.51	323.34
668.85	322.54
669.19	321.80
669.53	320.88
669.87	319.95
670.21	319.05
670.55	318.22
670.89	317.49
671.23	316.76
671.57	316.03
671.91	315.32
672.25	314.64
672.58	313.98
672.92	313.24
673.26	312.54
673.60	311.82
673.94	311.09
674.28	310.39
674.62	309.70
674.96	308.98
675.30	308.38
675.64	307.74
675.97	307.04
676.31	306.30
676.65	305.62
676.99	305.01
677.33	304.31
677.67	303.64
678.01	302.90
678.34	302.22
678.68	301.56
679.02	300.84
679.36	300.20
679.70	299.51
680.04	298.86
680.37	298.23
680.71	297.63
681.05	297.10
681.39	296.49
681.73	295.82
682.06	295.18
682.40	294.50
682.74	293.90
683.08	293.33
683.42	292.73
683.75	292.18
684.09	291.52
684.43	290.96
684.77	290.37
685.10	289.81
685.44	289.23
685.78	288.67
686.12	288.14
686.45	287.55
686.79	286.94
687.13	286.39
687.46	285.78
687.80	285.18
688.14	284.55
688.48	284.03
688.81	283.49
689.15	283.01
689.49	282.44
689.82	281.89
690.16	281.29
690.50	280.71
690.83	280.11
691.17	279.56
691.51	279.02
691.84	278.52
692.18	277.95
692.52	277.37
692.85	276.83
693.19	276.34
693.52	275.84
693.86	275.36
694.20	274.87
694.53	274.41
694.87	273.90
695.21	273.41
695.54	272.91
695.88	272.42
696.21	271.86
696.55	271.42
696.88	270.95
697.22	270.45
697.56	270.02
697.89	269.57
698.23	269.13
698.56	268.65
698.90	268.21
699.23	267.74
699.57	267.33
699.90	266.88
700.24	266.41
700.58	265.97
700.91	265.59
701.25	265.33
701.58	264.98
701.92	264.66
702.25	264.28
702.59	263.85
702.92	263.43
703.26	263.07
703.59	262.63
703.93	262.39
704.26	262.07
704.60	261.67
704.93	261.28
705.26	260.91
705.60	260.59
705.93	260.18
706.27	259.91
706.60	259.60
706.94	259.33
707.27	258.97
707.61	258.67
707.94	258.30
708.27	257.80
708.61	257.40
708.94	257.04
709.28	256.72
709.61	256.42
709.94	256.12
710.28	255.83
710.61	255.61
710.95	255.16
711.28	255.01
711.61	254.76
711.95	254.55
712.28	254.29
712.61	254.01
712.95	253.87
713.28	253.69
713.61	253.42
713.95	253.11
714.28	252.88
714.61	252.61
714.95	252.37
715.28	252.16
715.61	251.95
715.95	251.77
716.28	251.58
716.61	251.43
716.95	251.22
717.28	251.01
717.61	250.81
717.94	250.64
718.28	250.30
718.61	250.12
718.94	249.89
719.27	249.67
719.61	249.48
719.94	249.24
720.27	248.97
720.60	248.79
720.94	248.60
721.27	248.42
721.60	248.25
721.93	248.06
722.27	247.94
722.60	247.78
722.93	247.55
723.26	247.37
723.59	247.12
723.93	246.98
724.26	246.81
724.59	246.62
724.92	246.43
725.25	246.31
725.59	246.14
725.92	245.99
726.25	245.82
726.58	245.66
726.91	245.49
727.24	245.33
727.57	245.17
727.91	245.02
728.24	244.89
728.57	244.72
728.90	244.60
729.23	244.36
729.56	244.26
729.89	244.12
730.22	243.95
730.55	243.83
730.89	243.67
731.22	243.49
731.55	243.32
731.88	243.20
732.21	242.99
732.54	242.79
732.87	242.64
733.20	242.49
733.53	242.36
733.86	242.21
734.19	242.03
734.52	241.88
734.85	241.83
735.18	241.66
735.51	241.54
735.84	241.40
736.17	241.30
736.50	241.05
736.83	241.12
737.16	240.97
737.49	240.81
737.82	240.64
738.15	240.51
738.48	240.35
738.81	240.19
739.14	240.03
739.47	239.89
739.80	239.72
740.13	239.61
740.46	239.42
740.79	239.23
741.12	239.09
741.45	238.93
741.78	238.69
742.11	238.59
742.44	238.41
742.77	238.28
743.10	238.11
743.43	237.99
743.75	237.67
744.08	237.80
744.41	237.69
744.74	237.57
745.07	237.42
745.40	237.36
745.73	237.30
746.06	237.20
746.39	237.11
746.71	236.98
747.04	236.85
747.37	236.74
747.70	236.70
748.03	236.61
748.36	236.53
748.68	236.41
749.01	236.26
749.34	236.18
749.67	236.10
750.00	236.05
750.33	236.08
750.65	236.01
750.98	235.65
751.31	235.56
751.64	235.48
751.97	235.51
752.29	235.39
752.62	235.24
752.95	235.17
753.28	235.07
753.60	234.98
753.93	234.97
754.26	234.92
754.59	234.79
754.91	234.73
755.24	234.65
755.57	234.69
755.90	234.64
756.22	234.55
756.55	234.48
756.88	234.39
757.20	234.21
757.53	234.10
757.86	234.06
758.19	234.03
758.51	233.99
758.84	233.83
759.17	233.78
759.49	233.73
759.82	233.76
760.15	233.74
760.47	233.71
760.80	233.62
761.13	233.61
761.45	233.58
761.78	233.54
762.11	233.49
762.43	233.37
762.76	233.33
763.08	233.32
763.41	233.29
763.74	233.24
764.06	233.19
764.39	233.17
764.71	233.13
765.04	233.05
765.37	232.99
765.69	232.97
766.02	232.93
766.34	232.88
766.67	232.78
767.00	232.79
767.32	232.86
767.65	232.92
767.97	232.87
768.30	232.85
768.62	232.78
768.95	232.74
769.27	232.69
769.60	232.65
769.92	232.59
770.25	232.51
770.57	232.46
770.90	232.41
771.22	232.35
771.55	232.30
771.87	232.29
772.20	232.24
772.52	232.33
772.85	232.48
773.17	232.46
773.50	232.41
773.82	232.33
774.15	232.17
774.47	232.05
774.80	231.95
775.12	231.89
775.45	231.84
775.77	231.78
776.09	231.74
776.42	231.71
776.74	231.70
777.07	231.63
777.39	231.57
777.72	231.51
778.04	231.47
778.36	231.43
778.69	231.36
779.01	231.31
779.33	231.11
779.66	230.86
779.98	230.79
780.31	230.73
780.63	230.72
780.95	230.69
781.28	230.59
781.60	230.53
781.92	230.49
782.25	230.44
782.57	230.40
782.89	230.35
783.22	230.26
783.54	230.20
783.86	230.18
784.19	230.14
784.51	230.16
784.83	230.11
785.16	230.06
785.48	230.01
785.80	229.95
786.12	229.93
786.45	229.88
786.77	229.86
787.09	229.83
787.42	229.73
787.74	229.70
788.06	229.69
788.38	229.64
788.71	229.60
789.03	229.59
789.35	229.60
789.67	229.55
789.99	229.56
790.32	229.50
790.64	229.49
790.96	229.62
791.28	229.51
791.61	229.46
791.93	229.45
792.25	229.41
792.57	229.53
792.89	229.48
793.21	229.49
793.54	229.47
793.86	229.42
794.18	229.44
794.50	229.39
794.82	229.38
795.14	229.40
795.47	229.42
795.79	229.44
796.11	229.38
796.43	229.38
796.75	229.36
797.07	229.37
797.39	229.38
797.71	229.27
798.04	229.29
798.36	229.32
798.68	229.34
799.00	229.37
799.32	229.27
799.64	229.32
799.96	229.32
800.28	229.33
800.60	229.34
800.92	229.35
801.24	229.36
801.56	229.38
801.89	229.40
802.21	229.41
802.53	229.36
802.85	229.40
803.17	229.49
803.49	229.45
803.81	229.44
804.13	229.40
804.45	229.36
804.77	229.40
805.09	229.39
805.41	229.34
805.73	229.33
806.05	229.30
806.37	229.30
806.69	229.28
807.01	229.28
807.33	229.30
807.65	229.26
807.97	229.35
808.28	229.31
808.60	229.29
808.92	229.26
809.24	229.38
809.56	229.35
809.88	229.29
810.20	229.30
810.52	229.33
810.84	229.31
811.16	229.31
811.48	229.29
811.80	229.36
812.12	229.32
812.43	229.34
812.75	229.32
813.07	229.27
813.39	229.27
813.71	229.22
814.03	229.17
814.35	229.16
814.67	229.05
814.98	229.03
815.30	229.02
815.62	228.98
815.94	228.84
816.26	228.83
816.58	228.76
816.89	228.75
817.21	228.67
817.53	228.67
817.85	228.63
818.17	228.60
818.48	228.50
818.80	228.53
819.12	228.47
819.44	228.44
819.76	228.41
820.07	228.38
820.39	228.36
820.71	228.35
821.03	228.33
821.34	228.29
821.66	228.30
821.98	228.28
822.30	228.23
822.61	228.33
822.93	228.29
823.25	228.28
823.57	228.22
823.88	228.22
824.20	228.19
824.52	228.18
824.83	228.17
825.15	228.13
825.47	228.09
825.79	228.11
826.10	228.08
826.42	228.05
826.74	228.04
827.05	228.02
827.37	228.00
827.69	227.98
828.00	227.97
828.32	227.92
828.64	227.87
828.95	227.99
829.27	227.92
829.58	227.90
829.90	227.91
830.22	227.93
830.53	227.89
830.85	227.88
831.17	227.84
831.48	227.82
831.80	227.81
832.11	227.81
832.43	227.75
832.75	227.73
833.06	227.85
833.38	227.81
833.69	227.82
834.01	227.81
834.32	227.83
834.64	227.83
834.96	227.84
835.27	227.86
835.59	227.79
835.90	227.75
836.22	227.76
836.53	227.74
836.85	227.72
837.16	227.93
837.48	227.93
837.79	228.01
838.11	228.02
838.42	228.06
838.74	228.10
839.05	228.11
839.37	228.14
839.68	228.03
840.00	228.03
840.31	228.07
840.63	228.07
840.94	228.06
841.26	228.06
841.57	228.09
841.88	228.10
842.20	228.08
842.51	228.11
842.83	228.13
843.14	228.30
843.46	228.33
843.77	228.23
844.08	228.23
844.40	228.18
844.71	228.18
845.03	228.18
845.34	228.16
845.65	228.16
845.97	228.18
846.28	228.22
846.60	228.24
846.91	228.20
847.22	228.21
847.54	228.24
847.85	228.25
848.16	228.24
848.48	228.22
848.79	228.30
849.10	228.30
849.42	228.28
849.73	228.12
850.04	228.10
850.36	228.06
850.67	228.09
850.98	228.11
851.30	228.12
851.61	228.10
851.92	228.09
852.23	228.16
852.55	228.17
852.86	228.17
853.17	228.18
853.49	228.22
853.80	228.25
854.11	228.25
854.42	228.28
854.74	228.26
855.05	228.26
855.36	228.15
855.67	228.12
855.99	228.13
856.30	228.32
856.61	228.32
856.92	228.27
857.23	228.25
857.55	228.19
857.86	228.18
858.17	228.20
858.48	228.15
858.79	228.07
859.11	228.06
859.42	228.04
859.73	227.99
860.04	227.98
860.35	227.89
860.66	227.82
860.98	227.78
861.29	227.79
861.60	227.76
861.91	227.79
862.22	227.74
862.53	227.71
862.84	227.48
863.16	227.49
863.47	227.46
863.78	227.43
864.09	227.45
864.40	227.44
864.71	227.41
865.02	227.43
865.33	227.40
865.64	227.33
865.95	227.32
866.27	227.42
866.58	227.38
866.89	227.39
867.20	227.39
867.51	227.35
867.82	227.33
868.13	227.37
868.44	227.32
868.75	227.38
869.06	227.38
869.37	227.42
869.68	227.38
869.99	227.43
870.30	227.42
870.61	227.41
870.92	227.39
871.23	227.37
871.54	227.38
871.85	227.44
872.16	227.47
872.47	227.46
872.78	227.36
873.09	227.38
873.40	227.35
873.71	227.38
874.02	227.41
874.33	227.41
874.64	227.38
874.95	227.43
875.26	227.39
875.56	227.38
875.87	227.36
876.18	227.36
876.49	227.51
876.80	227.52
877.11	227.50
877.42	227.50
877.73	227.52
878.04	227.52
878.35	227.51
878.66	227.53
878.96	227.53
879.27	227.55
879.58	227.55
879.89	227.58
880.20	227.64
880.51	227.66
880.82	227.66
881.12	227.69
881.43	227.65
881.74	227.66
882.05	227.68
882.36	227.73
882.67	227.77
882.97	227.61
883.28	227.64
883.59	227.66
883.90	227.71
884.21	227.72
884.51	227.72
884.82	227.73
885.13	227.73
885.44	227.74
885.74	227.76
886.05	227.76
886.36	227.77
886.67	227.72
886.98	227.80
887.28	227.83
887.59	227.84
887.90	227.86
888.20	227.86
888.51	227.90
888.82	227.84
889.13	227.85
889.43	228.03
889.74	227.99
890.05	227.99
890.35	227.98
890.66	227.99
890.97	227.98
891.28	227.97
891.58	227.97
891.89	227.98
892.20	227.96
892.50	227.96
892.81	227.96
893.12	227.95
893.42	227.86
893.73	227.85
894.04	227.85
894.34	227.83
894.65	227.84
894.95	227.82
895.26	227.83
895.57	227.89
895.87	227.67
896.18	227.71
896.48	227.72
896.79	227.71
897.10	227.69
897.40	227.69
897.71	227.68
898.01	227.67
898.32	227.67
898.63	227.65
898.93	227.64
899.24	227.60
899.54	227.58
899.85	227.57
900.15	227.55
900.46	227.54
900.76	227.54
901.07	227.52
901.38	227.47
901.68	227.49
901.99	227.37
902.29	227.39
902.60	227.32
902.90	227.32
903.21	227.29
903.51	227.28
903.82	227.31
904.12	227.31
904.43	227.30
904.73	227.30
905.03	227.28
905.34	227.46
905.64	227.43
905.95	227.45
906.25	227.43
906.56	227.40
906.86	227.36
907.17	227.33
907.47	227.34
907.77	227.35
908.08	227.30
908.38	227.33
908.69	227.34
908.99	227.40
909.30	227.39
909.60	227.37
909.90	227.37
910.21	227.33
910.51	227.29
910.81	227.29
911.12	227.28
911.42	227.30
911.73	227.10
912.03	227.12
912.33	227.15
912.64	227.15
912.94	227.16
913.24	227.15
913.55	227.14
913.85	227.12
914.15	227.15
914.46	227.18
914.76	227.17
915.06	227.15
915.37	227.11
915.67	227.10
915.97	227.14
916.27	227.12
916.58	227.11
916.88	227.11
917.18	227.12
917.49	227.25
917.79	227.27
918.09	227.33
918.39	227.39
918.70	227.38
919.00	227.41
919.30	227.52
919.60	227.54
919.91	227.53
920.21	227.55
920.51	227.50
920.81	227.49
921.12	227.53
921.42	227.55
921.72	227.59
922.02	227.62
922.32	227.63
922.63	227.66
922.93	227.78
923.23	227.81
923.53	227.77
923.83	227.65
924.13	227.67
924.44	227.65
924.74	227.70
925.04	227.74
925.34	227.76
925.64	227.69
925.94	227.71
926.24	227.83
926.55	227.85
926.85	227.93
927.15	227.96
927.45	227.94
927.75	227.93
928.05	227.91
928.35	227.88
928.65	227.92
928.95	227.95
929.26	227.87
929.56	227.91
929.86	227.96
930.16	227.96
930.46	227.94
930.76	227.92
931.06	227.83
931.36	227.80
931.66	227.81
931.96	227.82
932.26	227.81
932.56	227.74
932.86	227.73
933.16	227.70
933.46	227.68
933.76	227.67
934.06	227.70
934.36	227.76
934.66	227.75
934.96	227.71
935.26	227.67
935.56	227.69
935.86	227.61
936.16	227.55
936.46	227.53
936.76	227.50
937.06	227.46
937.36	227.46
937.66	227.44
937.96	227.40
938.26	227.33
938.56	227.31
938.86	227.31
939.16	227.35
939.46	227.35
939.76	227.34
940.06	227.32
940.35	227.31
940.65	227.22
940.95	227.23
941.25	227.18
941.55	227.18
941.85	227.17
942.15	227.20
942.45	227.27
942.75	227.25
943.04	227.26
943.34	227.30
943.64	227.29
943.94	227.24
944.24	227.24
944.54	227.27
944.84	227.25
945.13	227.19
945.43	227.14
945.73	227.13
946.03	227.14
946.33	227.13
946.62	227.09
946.92	227.09
947.22	227.09
947.52	227.09
947.82	227.09
948.11	227.06
948.41	227.04
948.71	227.00
949.01	227.02
949.31	226.99
949.60	226.99
949.90	227.03
950.20	227.03
950.50	227.03
950.79	227.00
951.09	227.04
951.39	227.04
951.69	227.03
951.98	227.07
952.28	227.04
952.58	227.05
952.87	227.06
953.17	227.09
953.47	227.06
953.76	227.09
954.06	227.10
954.36	227.08
954.66	227.08
954.95	227.13
955.25	227.16
955.55	227.19
955.84	227.18
956.14	227.16
956.44	227.18
956.73	227.18
957.03	227.23
957.32	227.26
957.62	227.26
957.92	227.33
958.21	227.31
958.51	227.56
958.81	227.59
959.10	227.60
959.40	227.65
959.69	227.68
959.99	227.73
960.29	227.74
960.58	227.76
960.88	227.83
961.17	227.79
961.47	227.82
961.76	227.83
962.06	227.85
962.36	227.85
962.65	227.87
962.95	227.88
963.24	227.87
963.54	227.86
963.83	227.88
964.13	227.86
964.42	227.82
964.72	227.67
965.01	227.67
965.31	227.69
965.60	227.65
965.90	227.74
966.19	227.67
966.49	227.68
966.78	227.68
967.08	227.66
967.37	227.67
967.67	227.64
967.96	227.66
968.26	227.66
968.55	227.68
968.85	227.68
969.14	227.68
969.43	227.66
969.73	227.65
970.02	227.63
970.32	227.61
970.61	227.61
970.91	227.54
971.20	227.52
971.49	227.49
971.79	227.51
972.08	227.39
972.38	227.38
972.67	227.33
972.96	227.33
973.26	227.24
973.55	227.26
973.85	227.24
974.14	227.21
974.43	227.21
974.73	227.16
975.02	227.12
975.31	227.11
975.61	227.10
975.90	227.06
976.19	227.01
976.49	227.00
976.78	226.98
977.07	226.97
977.37	226.95
977.66	226.94
977.95	226.89
978.24	226.89
978.54	226.93
978.83	226.93
979.12	226.92
979.42	226.96
979.71	226.92
980.00	226.90
980.29	226.86
980.59	226.81
980.88	226.88
981.17	226.88
981.46	226.88
981.76	226.89
982.05	226.92
982.34	226.96
982.63	226.97
982.93	226.95
983.22	226.99
983.51	227.01
983.80	227.02
984.09	227.04
984.39	227.04
984.68	227.02
984.97	227.02
985.26	227.00
985.55	226.99
985.85	226.96
986.14	227.00
986.43	227.02
986.72	227.00
987.01	226.93
987.30	226.93
987.59	226.93
987.89	226.93
988.18	226.92
988.47	226.91
988.76	226.90
989.05	226.88
989.34	226.85
989.63	226.91
989.92	226.91
990.22	226.92
990.51	226.90
990.80	226.91
991.09	226.93
991.38	226.99
991.67	226.96
991.96	226.97
992.25	226.97
992.54	226.97
992.83	227.02
993.12	227.04
993.41	227.08
993.70	227.18
993.99	227.20
994.28	227.22
994.58	227.25
994.87	227.26
995.16	227.30
995.45	227.31
995.74	227.26
996.03	227.30
996.32	227.33
996.61	227.41
996.90	227.41
997.19	227.44
997.48	227.44
997.77	227.46
998.06	227.49
998.34	227.51
998.63	227.51
998.92	227.52
999.21	227.55
999.50	227.57
999.79	227.48
1000.08	227.49
1000.37	227.50
1000.66	227.48
1000.95	227.52
1001.24	227.56
1001.53	227.59
1001.82	227.59
1002.11	227.54
1002.40	227.54
1002.68	227.58
1002.97	227.71
1003.26	227.68
1003.55	227.63
1003.84	227.67
1004.13	227.73
1004.42	227.71
1004.71	227.72
1004.99	227.72
1005.28	227.76
1005.57	227.74
1005.86	227.71
1006.15	227.69
1006.44	227.65
1006.72	227.69
1007.01	227.66
1007.30	227.65
1007.59	227.63
1007.88	227.62
1008.17	227.65
1008.45	227.61
1008.74	227.53
1009.03	227.43
1009.32	227.42
1009.60	227.45
1009.89	227.39
1010.18	227.29
1010.47	227.29
1010.76	227.27
1011.04	227.26
1011.33	227.24
1011.62	227.24
1011.91	227.25
1012.19	227.27
1012.48	227.28
1012.77	227.24
1013.05	227.29
1013.34	227.27
1013.63	227.26
1013.92	227.26
1014.20	227.23
1014.49	227.23
1014.78	227.24
1015.06	227.18
1015.35	227.16
1015.64	227.18
1015.92	227.22
1016.21	227.24
1016.50	227.24
1016.78	227.26
1017.07	227.26
1017.36	227.21
1017.64	227.18
1017.93	227.22
1018.22	227.19
1018.50	227.16
1018.79	227.14
1019.08	227.06
1019.36	227.06
1019.65	227.02
1019.93	227.05
1020.22	227.04
1020.51	227.10
1020.79	227.08
1021.08	226.76
1021.36	226.60
1021.65	226.77
1021.94	226.72
1022.22	227.00
1022.51	226.47
1022.79	227.71
1023.08	226.80
1023.36	228.66
1023.65	226.65
>>>>>End Processed Spectral Data<<<<<
