SpectraSuite Data File
++++++++++++++++++++++++++++++++++++
Date: Sun Sep 13 18:43:46 EDT 2015
User: lab3
Dark Spectrum Present: No
Reference Spectrum Present: No
Number of Sampled Component Spectra: 1
Spectrometers: USB2E7196
Integration Time (usec): 65000 (USB2E7196)
Spectra Averaged: 200 (USB2E7196)
Boxcar Smoothing: 10 (USB2E7196)
Correct for Electrical Dark: No (USB2E7196)
Strobe/Lamp Enabled: No (USB2E7196)
Correct for Detector Non-linearity: No (USB2E7196)
Correct for Stray Light: No (USB2E7196)
Number of Pixels in Processed Spectrum: 2048
>>>>>Begin Processed Spectral Data<<<<<
339.09	0.00
339.48	215.36
339.86	216.86
340.24	218.17
340.63	219.39
341.01	223.32
341.39	222.10
341.78	223.72
342.16	225.31
342.54	225.16
342.93	213.71
343.31	224.50
343.69	225.02
344.07	225.47
344.46	225.91
344.84	226.31
345.22	226.52
345.60	226.80
345.99	227.01
346.37	227.15
346.75	227.29
347.13	227.37
347.52	227.46
347.90	227.57
348.28	227.63
348.66	227.70
349.05	227.72
349.43	227.78
349.81	227.85
350.19	227.93
350.57	228.01
350.96	228.13
351.34	228.25
351.72	228.36
352.10	228.50
352.48	228.56
352.87	228.62
353.25	228.70
353.63	228.77
354.01	228.83
354.39	228.89
354.77	228.97
355.15	229.10
355.54	229.14
355.92	229.17
356.30	229.23
356.68	229.41
357.06	229.47
357.44	229.52
357.82	229.55
358.20	229.78
358.58	229.85
358.97	229.90
359.35	229.98
359.73	230.08
360.11	230.13
360.49	230.19
360.87	230.23
361.25	230.29
361.63	230.38
362.01	230.43
362.39	230.48
362.77	230.52
363.15	230.52
363.53	230.55
363.91	230.56
364.29	230.59
364.67	230.44
365.05	230.48
365.43	230.50
365.81	230.53
366.19	230.43
366.57	230.50
366.95	230.49
367.33	230.44
367.71	230.42
368.09	230.41
368.47	230.40
368.85	230.37
369.23	230.34
369.61	230.25
369.99	230.27
370.37	230.22
370.75	230.30
371.13	230.25
371.51	230.21
371.89	230.19
372.27	230.15
372.65	230.12
373.03	230.04
373.41	229.96
373.78	229.89
374.16	229.77
374.54	229.64
374.92	229.54
375.30	229.47
375.68	229.38
376.06	229.31
376.44	229.23
376.82	229.17
377.19	229.12
377.57	229.04
377.95	228.87
378.33	228.77
378.71	228.53
379.09	228.46
379.47	228.38
379.84	228.27
380.22	228.16
380.60	228.03
380.98	227.94
381.36	227.84
381.73	227.74
382.11	227.67
382.49	227.59
382.87	227.49
383.25	227.42
383.62	227.55
384.00	227.45
384.38	227.39
384.76	227.35
385.13	227.35
385.51	227.31
385.89	227.25
386.27	227.22
386.64	227.19
387.02	227.12
387.40	227.07
387.78	227.05
388.15	227.02
388.53	227.00
388.91	226.98
389.29	226.96
389.66	226.98
390.04	226.95
390.42	226.97
390.79	227.01
391.17	227.00
391.55	226.79
391.92	226.82
392.30	226.83
392.68	226.81
393.05	226.80
393.43	226.82
393.81	226.86
394.18	226.87
394.56	226.92
394.94	227.01
395.31	227.04
395.69	227.13
396.06	227.23
396.44	227.32
396.82	227.41
397.19	227.58
397.57	227.65
397.95	227.78
398.32	227.84
398.70	227.97
399.07	228.14
399.45	228.24
399.82	228.36
400.20	228.48
400.58	228.62
400.95	228.70
401.33	228.89
401.70	229.16
402.08	229.38
402.45	229.57
402.83	229.82
403.20	230.05
403.58	230.25
403.95	230.50
404.33	230.76
404.71	231.00
405.08	231.35
405.46	231.63
405.83	231.94
406.21	232.21
406.58	232.52
406.96	232.85
407.33	233.26
407.70	233.68
408.08	234.24
408.45	234.72
408.83	235.23
409.20	235.67
409.58	236.10
409.95	236.64
410.33	237.23
410.70	237.75
411.08	238.40
411.45	239.10
411.82	239.79
412.20	240.58
412.57	241.53
412.95	242.24
413.32	243.17
413.69	244.11
414.07	245.16
414.44	246.26
414.82	247.38
415.19	248.67
415.56	249.98
415.94	251.33
416.31	252.88
416.68	254.44
417.06	256.26
417.43	257.92
417.81	259.84
418.18	261.77
418.55	263.90
418.93	266.07
419.30	268.35
419.67	270.77
420.04	273.24
420.42	275.81
420.79	278.84
421.16	281.86
421.54	284.94
421.91	288.13
422.28	291.47
422.66	295.04
423.03	298.50
423.40	302.07
423.77	305.89
424.15	309.79
424.52	313.83
424.89	318.25
425.26	322.61
425.64	326.67
426.01	331.28
426.38	335.94
426.75	340.80
427.13	345.74
427.50	350.93
427.87	356.35
428.24	361.83
428.61	367.03
428.99	372.68
429.36	378.92
429.73	384.88
430.10	390.82
430.47	396.92
430.85	403.14
431.22	409.86
431.59	416.79
431.96	423.57
432.33	431.08
432.70	438.21
433.08	446.69
433.45	454.71
433.82	462.67
434.19	471.55
434.56	480.28
434.93	488.68
435.30	497.03
435.68	506.51
436.05	515.80
436.42	525.07
436.79	533.54
437.16	542.73
437.53	552.60
437.90	562.42
438.27	572.06
438.64	582.49
439.01	591.94
439.38	600.55
439.75	608.90
440.13	618.41
440.50	627.40
440.87	634.48
441.24	642.23
441.61	650.61
441.98	656.84
442.35	664.22
442.72	671.79
443.09	678.97
443.46	683.48
443.83	686.76
444.20	689.53
444.57	693.64
444.94	695.98
445.31	698.35
445.68	700.47
446.05	701.89
446.42	701.40
446.79	700.77
447.16	700.17
447.53	699.57
447.90	696.47
448.27	693.51
448.64	689.29
449.01	686.32
449.37	680.32
449.74	674.83
450.11	667.79
450.48	660.03
450.85	652.23
451.22	645.56
451.59	639.07
451.96	633.15
452.33	624.63
452.70	617.02
453.07	607.79
453.43	598.57
453.80	589.65
454.17	581.11
454.54	573.13
454.91	564.34
455.28	556.00
455.65	548.16
456.02	539.95
456.38	533.20
456.75	524.60
457.12	517.71
457.49	510.74
457.86	504.12
458.23	498.42
458.59	492.09
458.96	485.67
459.33	480.01
459.70	474.28
460.07	469.96
460.43	464.80
460.80	459.97
461.17	455.79
461.54	451.27
461.91	447.04
462.27	442.75
462.64	439.20
463.01	435.19
463.38	431.19
463.74	427.51
464.11	424.31
464.48	421.40
464.85	418.26
465.21	415.92
465.58	413.30
465.95	410.23
466.32	407.81
466.68	405.46
467.05	403.09
467.42	400.78
467.78	398.24
468.15	395.95
468.52	394.36
468.88	392.12
469.25	390.17
469.62	388.63
469.98	386.91
470.35	385.38
470.72	384.01
471.08	382.58
471.45	381.43
471.82	380.15
472.18	378.79
472.55	377.94
472.92	376.80
473.28	375.96
473.65	375.08
474.02	374.27
474.38	373.58
474.75	373.25
475.11	372.72
475.48	372.57
475.85	372.39
476.21	372.36
476.58	372.40
476.94	372.67
477.31	372.83
477.67	373.07
478.04	373.48
478.41	374.07
478.77	374.83
479.14	375.37
479.50	376.18
479.87	377.21
480.23	378.27
480.60	379.31
480.96	380.38
481.33	381.85
481.69	383.32
482.06	384.78
482.42	386.19
482.79	387.88
483.15	389.78
483.52	391.93
483.88	393.96
484.25	396.16
484.61	398.45
484.98	400.94
485.34	403.75
485.71	406.62
486.07	409.61
486.44	412.63
486.80	416.01
487.17	419.49
487.53	423.33
487.90	427.30
488.26	431.61
488.62	436.21
488.99	440.83
489.35	445.64
489.72	450.82
490.08	456.25
490.44	461.82
490.81	467.70
491.17	473.68
491.54	480.06
491.90	486.64
492.26	493.73
492.63	501.04
492.99	508.69
493.36	516.58
493.72	524.91
494.08	533.45
494.45	542.44
494.81	551.86
495.17	561.43
495.54	571.54
495.90	582.16
496.26	592.98
496.63	604.03
496.99	615.61
497.35	627.73
497.72	640.17
498.08	652.97
498.44	666.09
498.80	680.02
499.17	694.38
499.53	709.09
499.89	724.15
500.26	739.69
500.62	755.62
500.98	772.46
501.34	789.50
501.71	807.30
502.07	825.35
502.43	843.85
502.79	862.96
503.16	882.68
503.52	902.52
503.88	922.95
504.24	943.92
504.60	965.27
504.97	987.32
505.33	1009.89
505.69	1033.31
506.05	1057.08
506.41	1080.84
506.78	1104.89
507.14	1129.66
507.50	1155.12
507.86	1180.99
508.22	1207.24
508.59	1233.47
508.95	1260.45
509.31	1288.05
509.67	1316.76
510.03	1345.75
510.39	1374.60
510.75	1403.45
511.12	1432.74
511.48	1462.41
511.84	1492.25
512.20	1522.49
512.56	1553.64
512.92	1584.69
513.28	1615.55
513.64	1646.75
514.00	1678.53
514.37	1710.79
514.73	1742.89
515.09	1774.75
515.45	1806.72
515.81	1838.66
516.17	1870.37
516.53	1901.87
516.89	1933.23
517.25	1964.57
517.61	1995.85
517.97	2027.88
518.33	2059.37
518.69	2090.62
519.05	2122.20
519.41	2154.02
519.77	2185.99
520.13	2216.43
520.49	2247.21
520.85	2277.97
521.21	2308.36
521.57	2339.20
521.93	2368.64
522.29	2398.98
522.65	2428.78
523.01	2458.38
523.37	2487.24
523.73	2516.76
524.09	2545.96
524.45	2575.04
524.81	2603.31
525.17	2631.72
525.53	2658.76
525.89	2686.18
526.25	2713.56
526.61	2739.43
526.97	2765.00
527.33	2790.40
527.68	2816.22
528.04	2841.20
528.40	2865.62
528.76	2889.94
529.12	2913.27
529.48	2937.32
529.84	2958.44
530.20	2979.89
530.56	3000.33
530.91	3021.55
531.27	3042.60
531.63	3062.89
531.99	3082.58
532.35	3100.46
532.71	3118.23
533.07	3136.70
533.42	3153.18
533.78	3170.43
534.14	3187.52
534.50	3204.00
534.86	3220.87
535.21	3234.46
535.57	3248.05
535.93	3261.29
536.29	3273.30
536.65	3285.19
537.00	3295.83
537.36	3308.03
537.72	3318.08
538.08	3328.05
538.44	3337.01
538.79	3345.22
539.15	3351.49
539.51	3356.88
539.87	3362.36
540.22	3365.26
540.58	3369.02
540.94	3373.43
541.29	3375.62
541.65	3377.36
542.01	3378.52
542.37	3377.14
542.72	3378.37
543.08	3378.05
543.44	3377.53
543.79	3376.45
544.15	3374.15
544.51	3371.47
544.87	3367.55
545.22	3363.90
545.58	3359.34
545.94	3354.02
546.29	3348.10
546.65	3342.86
547.01	3337.30
547.36	3332.07
547.72	3327.10
548.07	3319.62
548.43	3311.59
548.79	3303.70
549.14	3295.90
549.50	3287.90
549.86	3279.88
550.21	3269.37
550.57	3259.83
550.92	3249.02
551.28	3237.33
551.64	3226.02
551.99	3215.30
552.35	3204.39
552.70	3193.01
553.06	3182.06
553.41	3170.83
553.77	3158.17
554.13	3145.35
554.48	3132.33
554.84	3118.38
555.19	3104.73
555.55	3091.05
555.90	3077.35
556.26	3064.03
556.61	3050.01
556.97	3034.89
557.32	3019.61
557.68	3004.63
558.03	2988.97
558.39	2973.80
558.74	2960.20
559.10	2945.50
559.45	2930.05
559.81	2914.63
560.16	2899.10
560.52	2883.60
560.87	2868.99
561.23	2854.02
561.58	2839.19
561.94	2823.52
562.29	2807.47
562.64	2791.98
563.00	2776.07
563.35	2760.64
563.71	2744.64
564.06	2728.49
564.42	2712.53
564.77	2696.84
565.12	2681.83
565.48	2666.78
565.83	2652.02
566.19	2636.90
566.54	2621.58
566.89	2605.36
567.25	2589.26
567.60	2574.04
567.96	2558.44
568.31	2541.38
568.66	2524.53
569.02	2508.53
569.37	2493.70
569.72	2479.37
570.08	2464.73
570.43	2450.01
570.78	2434.51
571.14	2418.40
571.49	2402.66
571.84	2387.43
572.20	2371.56
572.55	2355.80
572.90	2339.52
573.26	2322.86
573.61	2305.66
573.96	2288.77
574.31	2272.66
574.67	2256.97
575.02	2240.38
575.37	2224.03
575.72	2207.87
576.08	2191.95
576.43	2174.69
576.78	2157.27
577.13	2140.61
577.49	2123.60
577.84	2106.67
578.19	2089.52
578.54	2072.72
578.90	2055.61
579.25	2038.47
579.60	2022.23
579.95	2005.90
580.30	1990.79
580.66	1975.54
581.01	1959.93
581.36	1944.55
581.71	1929.57
582.06	1914.42
582.42	1899.43
582.77	1884.53
583.12	1870.53
583.47	1856.82
583.82	1843.58
584.17	1829.60
584.53	1815.45
584.88	1801.45
585.23	1787.69
585.58	1774.36
585.93	1760.88
586.28	1748.06
586.63	1735.12
586.98	1721.68
587.34	1708.56
587.69	1694.21
588.04	1680.33
588.39	1667.32
588.74	1654.23
589.09	1641.54
589.44	1628.04
589.79	1615.62
590.14	1603.11
590.49	1590.24
590.84	1577.42
591.19	1565.10
591.54	1552.75
591.89	1540.19
592.25	1528.20
592.60	1515.84
592.95	1503.91
593.30	1492.30
593.65	1480.51
594.00	1468.82
594.35	1457.79
594.70	1445.72
595.05	1434.92
595.40	1423.97
595.75	1412.76
596.10	1401.87
596.45	1390.57
596.80	1380.07
597.15	1369.06
597.50	1358.15
597.85	1347.86
598.19	1337.67
598.54	1327.24
598.89	1317.42
599.24	1307.94
599.59	1298.19
599.94	1289.21
600.29	1279.86
600.64	1270.44
600.99	1260.43
601.34	1251.01
601.69	1241.30
602.04	1232.69
602.39	1223.84
602.74	1215.36
603.08	1206.96
603.43	1198.33
603.78	1189.74
604.13	1181.20
604.48	1172.67
604.83	1164.16
605.18	1155.11
605.53	1146.34
605.87	1137.56
606.22	1128.93
606.57	1120.23
606.92	1111.24
607.27	1102.26
607.62	1093.68
607.96	1085.31
608.31	1077.81
608.66	1070.12
609.01	1062.44
609.36	1054.85
609.70	1046.73
610.05	1038.24
610.40	1030.08
610.75	1022.20
611.10	1014.94
611.44	1007.25
611.79	999.93
612.14	992.37
612.49	984.79
612.83	977.63
613.18	970.60
613.53	963.59
613.88	956.33
614.22	949.70
614.57	942.82
614.92	935.92
615.27	929.26
615.61	922.44
615.96	915.51
616.31	908.72
616.65	901.91
617.00	895.43
617.35	889.18
617.70	882.85
618.04	876.45
618.39	869.90
618.74	863.88
619.08	857.49
619.43	851.44
619.78	845.53
620.12	839.43
620.47	833.73
620.82	827.84
621.16	822.13
621.51	816.16
621.85	810.25
622.20	804.30
622.55	798.59
622.89	793.03
623.24	787.67
623.59	782.28
623.93	776.89
624.28	771.72
624.62	766.60
624.97	761.54
625.32	756.36
625.66	750.82
626.01	745.33
626.35	740.16
626.70	734.89
627.04	729.77
627.39	724.63
627.73	719.58
628.08	714.83
628.43	710.09
628.77	705.38
629.12	700.82
629.46	696.50
629.81	691.92
630.15	687.13
630.50	682.51
630.84	678.04
631.19	673.68
631.53	669.39
631.88	665.05
632.22	660.66
632.57	656.85
632.91	653.02
633.26	649.07
633.60	645.07
633.95	641.29
634.29	637.43
634.64	633.54
634.98	629.28
635.32	625.25
635.67	621.46
636.01	617.64
636.36	613.81
636.70	610.14
637.05	606.35
637.39	602.81
637.73	599.08
638.08	595.46
638.42	592.01
638.77	588.28
639.11	584.46
639.45	580.84
639.80	576.98
640.14	573.40
640.49	569.76
640.83	566.27
641.17	562.70
641.52	559.11
641.86	555.67
642.20	552.56
642.55	549.10
642.89	545.62
643.23	542.40
643.58	539.52
643.92	536.35
644.26	533.34
644.61	530.30
644.95	527.22
645.29	524.00
645.64	520.65
645.98	517.62
646.32	514.75
646.66	511.74
647.01	508.84
647.35	506.03
647.69	503.19
648.04	500.32
648.38	497.45
648.72	494.71
649.06	491.91
649.41	489.10
649.75	486.36
650.09	483.71
650.43	480.96
650.78	478.08
651.12	475.29
651.46	472.45
651.80	469.72
652.14	467.14
652.49	464.65
652.83	462.16
653.17	459.58
653.51	457.12
653.85	454.84
654.20	452.41
654.54	449.87
654.88	447.47
655.22	445.19
655.56	442.88
655.90	440.53
656.25	438.17
656.59	435.90
656.93	433.78
657.27	431.68
657.61	429.48
657.95	427.43
658.29	425.35
658.64	423.37
658.98	421.32
659.32	419.19
659.66	417.17
660.00	415.19
660.34	413.22
660.68	411.11
661.02	408.95
661.36	406.95
661.70	405.04
662.05	403.17
662.39	401.30
662.73	399.56
663.07	397.88
663.41	396.22
663.75	394.42
664.09	392.67
664.43	390.81
664.77	389.09
665.11	387.22
665.45	385.51
665.79	383.81
666.13	382.13
666.47	380.56
666.81	378.90
667.15	377.18
667.49	375.66
667.83	374.17
668.17	372.65
668.51	371.16
668.85	369.68
669.19	368.27
669.53	366.69
669.87	365.10
670.21	363.57
670.55	362.08
670.89	360.82
671.23	359.48
671.57	358.17
671.91	356.90
672.25	355.65
672.58	354.46
672.92	353.19
673.26	351.96
673.60	350.66
673.94	349.37
674.28	348.18
674.62	346.92
674.96	345.70
675.30	344.60
675.64	343.45
675.97	342.27
676.31	341.06
676.65	339.88
676.99	338.83
677.33	337.68
677.67	336.56
678.01	335.28
678.34	334.11
678.68	333.00
679.02	331.87
679.36	330.81
679.70	329.65
680.04	328.53
680.37	327.44
680.71	326.41
681.05	325.47
681.39	324.44
681.73	323.37
682.06	322.34
682.40	321.28
682.74	320.28
683.08	319.38
683.42	318.41
683.75	317.51
684.09	316.43
684.43	315.46
684.77	314.46
685.10	313.58
685.44	312.69
685.78	311.81
686.12	310.99
686.45	310.09
686.79	309.21
687.13	308.36
687.46	307.48
687.80	306.61
688.14	305.71
688.48	304.89
688.81	304.10
689.15	303.37
689.49	302.54
689.82	301.70
690.16	300.77
690.50	299.90
690.83	299.08
691.17	298.28
691.51	297.50
691.84	296.77
692.18	295.92
692.52	295.05
692.85	294.22
693.19	293.47
693.52	292.69
693.86	291.95
694.20	291.19
694.53	290.47
694.87	289.74
695.21	288.99
695.54	288.31
695.88	287.58
696.21	286.83
696.55	286.15
696.88	285.46
697.22	284.78
697.56	284.12
697.89	283.41
698.23	282.79
698.56	282.12
698.90	281.51
699.23	280.90
699.57	280.35
699.90	279.74
700.24	279.05
700.58	278.47
700.91	277.94
701.25	277.54
701.58	277.03
701.92	276.52
702.25	275.96
702.59	275.34
702.92	274.77
703.26	274.19
703.59	273.62
703.93	273.22
704.26	272.72
704.60	272.19
704.93	271.68
705.26	271.12
705.60	270.65
705.93	270.11
706.27	269.65
706.60	269.18
706.94	268.74
707.27	268.25
707.61	267.79
707.94	267.27
708.27	266.62
708.61	266.08
708.94	265.57
709.28	265.10
709.61	264.70
709.94	264.30
710.28	263.90
710.61	263.54
710.95	263.01
711.28	262.75
711.61	262.38
711.95	262.05
712.28	261.71
712.61	261.35
712.95	261.10
713.28	260.85
713.61	260.46
713.95	260.07
714.28	259.77
714.61	259.41
714.95	259.09
715.28	258.78
715.61	258.47
715.95	258.21
716.28	257.94
716.61	257.67
716.95	257.35
717.28	257.08
717.61	256.76
717.94	256.47
718.28	256.08
718.61	255.76
718.94	255.43
719.27	255.12
719.61	254.87
719.94	254.55
720.27	254.18
720.60	253.93
720.94	253.68
721.27	253.43
721.60	253.22
721.93	252.97
722.27	252.78
722.60	252.56
722.93	252.28
723.26	252.04
723.59	251.73
723.93	251.52
724.26	251.28
724.59	251.05
724.92	250.81
725.25	250.61
725.59	250.39
725.92	250.21
726.25	250.00
726.58	249.76
726.91	249.52
727.24	249.32
727.57	249.09
727.91	248.86
728.24	248.64
728.57	248.37
728.90	248.16
729.23	247.89
729.56	247.76
729.89	247.54
730.22	247.31
730.55	247.12
730.89	246.90
731.22	246.67
731.55	246.46
731.88	246.28
732.21	246.04
732.54	245.83
732.87	245.62
733.20	245.43
733.53	245.23
733.86	245.06
734.19	244.84
734.52	244.69
734.85	244.64
735.18	244.43
735.51	244.31
735.84	244.13
736.17	243.98
736.50	243.69
736.83	243.73
737.16	243.56
737.49	243.38
737.82	243.20
738.15	243.05
738.48	242.86
738.81	242.65
739.14	242.46
739.47	242.29
739.80	242.10
740.13	241.92
740.46	241.72
740.79	241.52
741.12	241.33
741.45	241.13
741.78	240.85
742.11	240.72
742.44	240.50
742.77	240.37
743.10	240.21
743.43	240.07
743.75	239.71
744.08	239.85
744.41	239.71
744.74	239.58
745.07	239.42
745.40	239.34
745.73	239.29
746.06	239.17
746.39	239.05
746.71	238.91
747.04	238.76
747.37	238.63
747.70	238.53
748.03	238.44
748.36	238.34
748.68	238.20
749.01	238.04
749.34	237.96
749.67	237.84
750.00	237.76
750.33	237.78
750.65	237.72
750.98	237.33
751.31	237.24
751.64	237.13
751.97	237.12
752.29	237.02
752.62	236.84
752.95	236.74
753.28	236.62
753.60	236.55
753.93	236.53
754.26	236.46
754.59	236.33
754.91	236.22
755.24	236.11
755.57	236.13
755.90	236.07
756.22	235.97
756.55	235.87
756.88	235.76
757.20	235.57
757.53	235.45
757.86	235.38
758.19	235.33
758.51	235.26
758.84	235.13
759.17	235.03
759.49	234.98
759.82	235.02
760.15	235.00
760.47	234.94
760.80	234.81
761.13	234.79
761.45	234.74
761.78	234.71
762.11	234.68
762.43	234.56
762.76	234.49
763.08	234.48
763.41	234.44
763.74	234.39
764.06	234.33
764.39	234.30
764.71	234.25
765.04	234.19
765.37	234.12
765.69	234.06
766.02	234.02
766.34	233.95
766.67	233.82
767.00	233.80
767.32	233.84
767.65	233.91
767.97	233.82
768.30	233.80
768.62	233.73
768.95	233.63
769.27	233.57
769.60	233.55
769.92	233.44
770.25	233.37
770.57	233.28
770.90	233.23
771.22	233.16
771.55	233.09
771.87	233.03
772.20	232.99
772.52	233.06
772.85	233.21
773.17	233.14
773.50	233.08
773.82	232.99
774.15	232.84
774.47	232.67
774.80	232.61
775.12	232.53
775.45	232.47
775.77	232.44
776.09	232.40
776.42	232.32
776.74	232.30
777.07	232.23
777.39	232.20
777.72	232.14
778.04	232.09
778.36	232.03
778.69	231.95
779.01	231.91
779.33	231.71
779.66	231.45
779.98	231.40
780.31	231.34
780.63	231.35
780.95	231.33
781.28	231.27
781.60	231.21
781.92	231.16
782.25	231.10
782.57	231.04
782.89	230.96
783.22	230.92
783.54	230.84
783.86	230.80
784.19	230.74
784.51	230.73
784.83	230.66
785.16	230.62
785.48	230.60
785.80	230.54
786.12	230.51
786.45	230.47
786.77	230.42
787.09	230.38
787.42	230.27
787.74	230.23
788.06	230.20
788.38	230.14
788.71	230.12
789.03	230.09
789.35	230.08
789.67	230.04
789.99	230.03
790.32	229.98
790.64	229.99
790.96	230.13
791.28	230.06
791.61	230.03
791.93	230.01
792.25	230.00
792.57	230.09
792.89	230.04
793.21	230.03
793.54	230.03
793.86	230.03
794.18	230.02
794.50	229.98
794.82	229.98
795.14	230.03
795.47	230.05
795.79	230.05
796.11	230.01
796.43	230.00
796.75	229.98
797.07	229.99
797.39	229.96
797.71	229.78
798.04	229.79
798.36	229.82
798.68	229.82
799.00	229.82
799.32	229.76
799.64	229.78
799.96	229.80
800.28	229.83
800.60	229.81
800.92	229.82
801.24	229.81
801.56	229.84
801.89	229.82
802.21	229.84
802.53	229.82
802.85	229.86
803.17	229.96
803.49	229.92
803.81	229.90
804.13	229.92
804.45	229.91
804.77	229.93
805.09	229.91
805.41	229.89
805.73	229.87
806.05	229.81
806.37	229.79
806.69	229.74
807.01	229.72
807.33	229.74
807.65	229.66
807.97	229.74
808.28	229.69
808.60	229.68
808.92	229.63
809.24	229.73
809.56	229.68
809.88	229.60
810.20	229.61
810.52	229.65
810.84	229.60
811.16	229.61
811.48	229.58
811.80	229.64
812.12	229.62
812.43	229.61
812.75	229.62
813.07	229.61
813.39	229.61
813.71	229.58
814.03	229.53
814.35	229.55
814.67	229.46
814.98	229.43
815.30	229.40
815.62	229.36
815.94	229.22
816.26	229.23
816.58	229.15
816.89	229.14
817.21	229.09
817.53	229.08
817.85	229.05
818.17	229.00
818.48	228.90
818.80	228.94
819.12	228.90
819.44	228.84
819.76	228.80
820.07	228.79
820.39	228.75
820.71	228.74
821.03	228.71
821.34	228.66
821.66	228.66
821.98	228.65
822.30	228.61
822.61	228.68
822.93	228.62
823.25	228.61
823.57	228.58
823.88	228.55
824.20	228.50
824.52	228.51
824.83	228.48
825.15	228.43
825.47	228.38
825.79	228.36
826.10	228.32
826.42	228.30
826.74	228.30
827.05	228.26
827.37	228.22
827.69	228.19
828.00	228.18
828.32	228.16
828.64	228.13
828.95	228.19
829.27	228.12
829.58	228.11
829.90	228.12
830.22	228.09
830.53	228.07
830.85	228.06
831.17	228.00
831.48	228.00
831.80	227.99
832.11	227.98
832.43	227.97
832.75	227.99
833.06	228.08
833.38	228.03
833.69	228.03
834.01	228.05
834.32	228.05
834.64	228.03
834.96	228.04
835.27	228.04
835.59	228.02
835.90	227.99
836.22	227.99
836.53	227.99
836.85	227.99
837.16	228.19
837.48	228.22
837.79	228.30
838.11	228.30
838.42	228.32
838.74	228.36
839.05	228.36
839.37	228.35
839.68	228.26
840.00	228.25
840.31	228.28
840.63	228.28
840.94	228.29
841.26	228.29
841.57	228.31
841.88	228.33
842.20	228.30
842.51	228.30
842.83	228.32
843.14	228.47
843.46	228.48
843.77	228.39
844.08	228.37
844.40	228.33
844.71	228.35
845.03	228.36
845.34	228.35
845.65	228.35
845.97	228.36
846.28	228.38
846.60	228.40
846.91	228.37
847.22	228.37
847.54	228.40
847.85	228.42
848.16	228.40
848.48	228.38
848.79	228.44
849.10	228.45
849.42	228.45
849.73	228.30
850.04	228.30
850.36	228.22
850.67	228.24
850.98	228.24
851.30	228.24
851.61	228.21
851.92	228.19
852.23	228.23
852.55	228.23
852.86	228.21
853.17	228.20
853.49	228.22
853.80	228.26
854.11	228.25
854.42	228.25
854.74	228.23
855.05	228.22
855.36	228.12
855.67	228.11
855.99	228.08
856.30	228.24
856.61	228.21
856.92	228.21
857.23	228.20
857.55	228.17
857.86	228.14
858.17	228.15
858.48	228.10
858.79	228.04
859.11	228.04
859.42	228.00
859.73	227.96
860.04	227.95
860.35	227.88
860.66	227.81
860.98	227.78
861.29	227.77
861.60	227.75
861.91	227.78
862.22	227.74
862.53	227.70
862.84	227.50
863.16	227.52
863.47	227.47
863.78	227.45
864.09	227.42
864.40	227.41
864.71	227.39
865.02	227.42
865.33	227.40
865.64	227.34
865.95	227.35
866.27	227.46
866.58	227.44
866.89	227.47
867.20	227.45
867.51	227.41
867.82	227.40
868.13	227.44
868.44	227.39
868.75	227.42
869.06	227.43
869.37	227.44
869.68	227.41
869.99	227.44
870.30	227.43
870.61	227.48
870.92	227.46
871.23	227.43
871.54	227.45
871.85	227.51
872.16	227.54
872.47	227.54
872.78	227.45
873.09	227.47
873.40	227.45
873.71	227.50
874.02	227.53
874.33	227.55
874.64	227.52
874.95	227.56
875.26	227.53
875.56	227.52
875.87	227.56
876.18	227.56
876.49	227.77
876.80	227.79
877.11	227.76
877.42	227.80
877.73	227.84
878.04	227.84
878.35	227.84
878.66	227.85
878.96	227.87
879.27	227.87
879.58	227.87
879.89	227.87
880.20	227.92
880.51	227.94
880.82	227.95
881.12	227.95
881.43	227.94
881.74	227.95
882.05	227.97
882.36	228.00
882.67	228.03
882.97	227.84
883.28	227.84
883.59	227.85
883.90	227.86
884.21	227.89
884.51	227.88
884.82	227.86
885.13	227.86
885.44	227.88
885.74	227.89
886.05	227.89
886.36	227.90
886.67	227.86
886.98	227.94
887.28	227.95
887.59	227.97
887.90	227.98
888.20	227.96
888.51	227.99
888.82	227.92
889.13	227.92
889.43	228.07
889.74	228.04
890.05	228.01
890.35	228.00
890.66	227.98
890.97	227.93
891.28	227.93
891.58	227.92
891.89	227.87
892.20	227.84
892.50	227.83
892.81	227.81
893.12	227.77
893.42	227.70
893.73	227.71
894.04	227.67
894.34	227.67
894.65	227.67
894.95	227.63
895.26	227.65
895.57	227.70
895.87	227.51
896.18	227.51
896.48	227.54
896.79	227.51
897.10	227.50
897.40	227.52
897.71	227.50
898.01	227.48
898.32	227.51
898.63	227.50
898.93	227.48
899.24	227.48
899.54	227.46
899.85	227.42
900.15	227.37
900.46	227.35
900.76	227.33
901.07	227.29
901.38	227.26
901.68	227.25
901.99	227.17
902.29	227.16
902.60	227.14
902.90	227.11
903.21	227.11
903.51	227.09
903.82	227.11
904.12	227.12
904.43	227.12
904.73	227.09
905.03	227.09
905.34	227.27
905.64	227.23
905.95	227.25
906.25	227.25
906.56	227.25
906.86	227.25
907.17	227.25
907.47	227.29
907.77	227.28
908.08	227.28
908.38	227.28
908.69	227.29
908.99	227.33
909.30	227.36
909.60	227.36
909.90	227.36
910.21	227.34
910.51	227.32
910.81	227.33
911.12	227.35
911.42	227.36
911.73	227.19
912.03	227.23
912.33	227.26
912.64	227.26
912.94	227.26
913.24	227.26
913.55	227.26
913.85	227.23
914.15	227.28
914.46	227.30
914.76	227.31
915.06	227.31
915.37	227.31
915.67	227.29
915.97	227.31
916.27	227.30
916.58	227.31
916.88	227.34
917.18	227.31
917.49	227.45
917.79	227.47
918.09	227.49
918.39	227.55
918.70	227.53
919.00	227.56
919.30	227.64
919.60	227.62
919.91	227.59
920.21	227.62
920.51	227.59
920.81	227.60
921.12	227.62
921.42	227.61
921.72	227.62
922.02	227.64
922.32	227.66
922.63	227.66
922.93	227.75
923.23	227.75
923.53	227.77
923.83	227.64
924.13	227.66
924.44	227.67
924.74	227.69
925.04	227.75
925.34	227.76
925.64	227.70
925.94	227.71
926.24	227.85
926.55	227.85
926.85	227.87
927.15	227.87
927.45	227.84
927.75	227.85
928.05	227.87
928.35	227.84
928.65	227.89
928.95	227.91
929.26	227.80
929.56	227.83
929.86	227.84
930.16	227.82
930.46	227.80
930.76	227.78
931.06	227.69
931.36	227.62
931.66	227.63
931.96	227.62
932.26	227.63
932.56	227.54
932.86	227.53
933.16	227.50
933.46	227.47
933.76	227.46
934.06	227.49
934.36	227.52
934.66	227.49
934.96	227.44
935.26	227.42
935.56	227.45
935.86	227.40
936.16	227.36
936.46	227.34
936.76	227.31
937.06	227.28
937.36	227.28
937.66	227.30
937.96	227.27
938.26	227.24
938.56	227.21
938.86	227.23
939.16	227.26
939.46	227.28
939.76	227.29
940.06	227.26
940.35	227.22
940.65	227.12
940.95	227.13
941.25	227.09
941.55	227.04
941.85	227.02
942.15	227.02
942.45	227.08
942.75	227.08
943.04	227.07
943.34	227.11
943.64	227.10
943.94	227.06
944.24	227.07
944.54	227.07
944.84	227.08
945.13	227.04
945.43	226.99
945.73	226.98
946.03	226.94
946.33	226.95
946.62	226.93
946.92	226.96
947.22	226.99
947.52	226.98
947.82	227.01
948.11	227.01
948.41	227.00
948.71	226.95
949.01	226.99
949.31	226.98
949.60	226.97
949.90	227.00
950.20	227.00
950.50	227.01
950.79	227.02
951.09	227.04
951.39	227.05
951.69	227.04
951.98	227.08
952.28	227.13
952.58	227.13
952.87	227.15
953.17	227.16
953.47	227.14
953.76	227.16
954.06	227.15
954.36	227.12
954.66	227.11
954.95	227.15
955.25	227.15
955.55	227.17
955.84	227.13
956.14	227.16
956.44	227.18
956.73	227.16
957.03	227.17
957.32	227.17
957.62	227.17
957.92	227.24
958.21	227.21
958.51	227.40
958.81	227.43
959.10	227.46
959.40	227.51
959.69	227.54
959.99	227.57
960.29	227.60
960.58	227.61
960.88	227.68
961.17	227.67
961.47	227.69
961.76	227.69
962.06	227.73
962.36	227.70
962.65	227.70
962.95	227.67
963.24	227.68
963.54	227.68
963.83	227.66
964.13	227.64
964.42	227.64
964.72	227.50
965.01	227.49
965.31	227.49
965.60	227.44
965.90	227.55
966.19	227.50
966.49	227.51
966.78	227.49
967.08	227.46
967.37	227.45
967.67	227.41
967.96	227.46
968.26	227.46
968.55	227.47
968.85	227.47
969.14	227.49
969.43	227.46
969.73	227.44
970.02	227.44
970.32	227.41
970.61	227.36
970.91	227.30
971.20	227.27
971.49	227.24
971.79	227.24
972.08	227.11
972.38	227.11
972.67	227.09
972.96	227.11
973.26	227.09
973.55	227.16
973.85	227.13
974.14	227.06
974.43	227.05
974.73	227.02
975.02	227.01
975.31	226.99
975.61	227.01
975.90	227.00
976.19	226.98
976.49	227.00
976.78	227.01
977.07	226.99
977.37	227.01
977.66	227.01
977.95	226.99
978.24	226.99
978.54	227.04
978.83	227.01
979.12	226.98
979.42	226.98
979.71	226.92
980.00	226.95
980.29	226.95
980.59	226.93
980.88	226.98
981.17	226.97
981.46	226.96
981.76	226.94
982.05	226.98
982.34	227.00
982.63	227.01
982.93	227.00
983.22	227.05
983.51	227.07
983.80	227.09
984.09	227.11
984.39	227.10
984.68	227.06
984.97	227.06
985.26	227.08
985.55	227.10
985.85	227.08
986.14	227.12
986.43	227.15
986.72	227.13
987.01	227.06
987.30	227.09
987.59	227.09
987.89	227.10
988.18	227.05
988.47	227.03
988.76	227.02
989.05	227.03
989.34	227.01
989.63	227.06
989.92	227.03
990.22	227.02
990.51	227.02
990.80	226.99
991.09	227.02
991.38	227.04
991.67	227.01
991.96	226.99
992.25	226.97
992.54	226.92
992.83	226.94
993.12	226.96
993.41	226.99
993.70	227.08
993.99	227.12
994.28	227.13
994.58	227.17
994.87	227.14
995.16	227.16
995.45	227.13
995.74	227.06
996.03	227.10
996.32	227.14
996.61	227.19
996.90	227.17
997.19	227.18
997.48	227.20
997.77	227.20
998.06	227.22
998.34	227.22
998.63	227.23
998.92	227.28
999.21	227.30
999.50	227.28
999.79	227.22
1000.08	227.23
1000.37	227.24
1000.66	227.22
1000.95	227.29
1001.24	227.30
1001.53	227.34
1001.82	227.33
1002.11	227.29
1002.40	227.31
1002.68	227.36
1002.97	227.53
1003.26	227.51
1003.55	227.46
1003.84	227.47
1004.13	227.54
1004.42	227.55
1004.71	227.55
1004.99	227.50
1005.28	227.55
1005.57	227.52
1005.86	227.51
1006.15	227.49
1006.44	227.45
1006.72	227.47
1007.01	227.42
1007.30	227.43
1007.59	227.40
1007.88	227.41
1008.17	227.42
1008.45	227.36
1008.74	227.28
1009.03	227.17
1009.32	227.16
1009.60	227.17
1009.89	227.17
1010.18	227.08
1010.47	227.02
1010.76	227.01
1011.04	227.01
1011.33	226.99
1011.62	227.01
1011.91	227.03
1012.19	227.01
1012.48	227.04
1012.77	227.02
1013.05	227.09
1013.34	227.08
1013.63	227.07
1013.92	227.07
1014.20	227.05
1014.49	227.05
1014.78	227.05
1015.06	227.00
1015.35	227.02
1015.64	227.02
1015.92	227.01
1016.21	227.01
1016.50	227.03
1016.78	227.04
1017.07	227.05
1017.36	227.03
1017.64	226.99
1017.93	227.01
1018.22	226.97
1018.50	226.96
1018.79	226.94
1019.08	226.87
1019.36	226.87
1019.65	226.86
1019.93	226.89
1020.22	226.91
1020.51	227.00
1020.79	226.98
1021.08	226.15
1021.36	226.76
1021.65	226.76
1021.94	226.94
1022.22	227.02
1022.51	226.72
1022.79	227.60
1023.08	227.27
1023.36	229.02
1023.65	226.37
>>>>>End Processed Spectral Data<<<<<
