SpectraSuite Data File
++++++++++++++++++++++++++++++++++++
Date: Sun Sep 13 18:38:52 EDT 2015
User: lab3
Dark Spectrum Present: No
Reference Spectrum Present: No
Number of Sampled Component Spectra: 1
Spectrometers: USB2E7196
Integration Time (usec): 65000 (USB2E7196)
Spectra Averaged: 200 (USB2E7196)
Boxcar Smoothing: 10 (USB2E7196)
Correct for Electrical Dark: No (USB2E7196)
Strobe/Lamp Enabled: No (USB2E7196)
Correct for Detector Non-linearity: No (USB2E7196)
Correct for Stray Light: No (USB2E7196)
Number of Pixels in Processed Spectrum: 2048
>>>>>Begin Processed Spectral Data<<<<<
339.09	0.00
339.48	215.68
339.86	216.67
340.24	217.97
340.63	219.88
341.01	223.99
341.39	222.50
341.78	224.01
342.16	225.26
342.54	225.45
342.93	213.98
343.31	224.78
343.69	225.30
344.07	225.78
344.46	226.22
344.84	226.58
345.22	226.72
345.60	226.98
345.99	227.15
346.37	227.25
346.75	227.33
347.13	227.37
347.52	227.43
347.90	227.50
348.28	227.49
348.66	227.52
349.05	227.48
349.43	227.50
349.81	227.54
350.19	227.59
350.57	227.64
350.96	227.70
351.34	227.77
351.72	227.84
352.10	227.92
352.48	227.98
352.87	228.04
353.25	228.11
353.63	228.14
354.01	228.21
354.39	228.29
354.77	228.36
355.15	228.48
355.54	228.52
355.92	228.55
356.30	228.65
356.68	228.84
357.06	228.90
357.44	228.93
357.82	228.98
358.20	229.17
358.58	229.23
358.97	229.30
359.35	229.39
359.73	229.48
360.11	229.52
360.49	229.58
360.87	229.63
361.25	229.71
361.63	229.80
362.01	229.80
362.39	229.80
362.77	229.86
363.15	229.86
363.53	229.88
363.91	229.90
364.29	229.89
364.67	229.72
365.05	229.73
365.43	229.74
365.81	229.76
366.19	229.69
366.57	229.74
366.95	229.72
367.33	229.65
367.71	229.61
368.09	229.62
368.47	229.60
368.85	229.56
369.23	229.51
369.61	229.41
369.99	229.42
370.37	229.40
370.75	229.46
371.13	229.40
371.51	229.32
371.89	229.25
372.27	229.19
372.65	229.14
373.03	229.06
373.41	228.99
373.78	228.89
374.16	228.71
374.54	228.57
374.92	228.47
375.30	228.42
375.68	228.32
376.06	228.22
376.44	228.10
376.82	228.02
377.19	227.95
377.57	227.86
377.95	227.73
378.33	227.63
378.71	227.39
379.09	227.29
379.47	227.24
379.84	227.14
380.22	227.03
380.60	226.89
380.98	226.84
381.36	226.75
381.73	226.65
382.11	226.61
382.49	226.54
382.87	226.42
383.25	226.32
383.62	226.48
384.00	226.37
384.38	226.30
384.76	226.26
385.13	226.23
385.51	226.18
385.89	226.10
386.27	226.07
386.64	226.04
387.02	225.99
387.40	225.93
387.78	225.92
388.15	225.92
388.53	225.91
388.91	225.86
389.29	225.82
389.66	225.84
390.04	225.80
390.42	225.82
390.79	225.84
391.17	225.83
391.55	225.64
391.92	225.66
392.30	225.73
392.68	225.72
393.05	225.73
393.43	225.76
393.81	225.83
394.18	225.86
394.56	225.90
394.94	225.99
395.31	226.02
395.69	226.13
396.06	226.22
396.44	226.29
396.82	226.39
397.19	226.58
397.57	226.63
397.95	226.77
398.32	226.79
398.70	226.91
399.07	227.07
399.45	227.14
399.82	227.26
400.20	227.37
400.58	227.50
400.95	227.59
401.33	227.78
401.70	228.03
402.08	228.19
402.45	228.36
402.83	228.56
403.20	228.77
403.58	228.93
403.95	229.17
404.33	229.39
404.71	229.59
405.08	229.88
405.46	230.14
405.83	230.42
406.21	230.72
406.58	231.03
406.96	231.32
407.33	231.67
407.70	232.02
408.08	232.52
408.45	232.93
408.83	233.38
409.20	233.77
409.58	234.14
409.95	234.65
410.33	235.19
410.70	235.70
411.08	236.26
411.45	236.88
411.82	237.49
412.20	238.21
412.57	239.08
412.95	239.69
413.32	240.56
413.69	241.40
414.07	242.32
414.44	243.32
414.82	244.31
415.19	245.51
415.56	246.72
415.94	247.92
416.31	249.33
416.68	250.76
417.06	252.39
417.43	253.91
417.81	255.66
418.18	257.46
418.55	259.39
418.93	261.43
419.30	263.56
419.67	265.82
420.04	268.14
420.42	270.55
420.79	273.43
421.16	276.27
421.54	279.20
421.91	282.22
422.28	285.36
422.66	288.78
423.03	292.05
423.40	295.48
423.77	299.16
424.15	302.91
424.52	306.82
424.89	311.06
425.26	315.23
425.64	319.15
426.01	323.55
426.38	328.11
426.75	332.78
427.13	337.57
427.50	342.60
427.87	347.80
428.24	353.09
428.61	358.13
428.99	363.63
429.36	369.66
429.73	375.45
430.10	381.27
430.47	387.18
430.85	393.31
431.22	399.88
431.59	406.71
431.96	413.35
432.33	420.74
432.70	427.82
433.08	436.17
433.45	444.12
433.82	451.96
434.19	460.69
434.56	469.33
434.93	477.70
435.30	486.00
435.68	495.44
436.05	504.70
436.42	513.98
436.79	522.46
437.16	531.66
437.53	541.52
437.90	551.38
438.27	561.10
438.64	571.51
439.01	580.99
439.38	589.66
439.75	598.12
440.13	607.60
440.50	616.60
440.87	623.85
441.24	631.73
441.61	640.28
441.98	646.59
442.35	654.11
442.72	661.81
443.09	669.17
443.46	673.89
443.83	677.41
444.20	680.39
444.57	684.67
444.94	687.24
445.31	689.88
445.68	692.18
446.05	693.83
446.42	693.60
446.79	693.22
447.16	692.86
447.53	692.51
447.90	689.79
448.27	687.16
448.64	683.13
449.01	680.33
449.37	674.57
449.74	669.34
450.11	662.51
450.48	654.90
450.85	647.30
451.22	640.85
451.59	634.52
451.96	628.77
452.33	620.41
452.70	612.95
453.07	603.83
453.43	594.66
453.80	585.80
454.17	577.29
454.54	569.40
454.91	560.56
455.28	552.22
455.65	544.32
456.02	536.13
456.38	529.38
456.75	520.75
457.12	513.82
457.49	506.82
457.86	500.18
458.23	494.43
458.59	488.04
458.96	481.49
459.33	475.72
459.70	469.85
460.07	465.36
460.43	460.05
460.80	455.16
461.17	450.89
461.54	446.26
461.91	441.93
462.27	437.47
462.64	433.81
463.01	429.67
463.38	425.52
463.74	421.65
464.11	418.24
464.48	415.21
464.85	411.88
465.21	409.34
465.58	406.56
465.95	403.33
466.32	400.73
466.68	398.20
467.05	395.64
467.42	393.11
467.78	390.42
468.15	387.94
468.52	386.11
468.88	383.70
469.25	381.49
469.62	379.69
469.98	377.76
470.35	376.00
470.72	374.38
471.08	372.68
471.45	371.24
471.82	369.70
472.18	368.02
472.55	366.90
472.92	365.53
473.28	364.38
473.65	363.17
474.02	362.03
474.38	360.97
474.75	360.24
475.11	359.31
475.48	358.75
475.85	358.16
476.21	357.64
476.58	357.23
476.94	357.09
477.31	356.77
477.67	356.52
478.04	356.42
478.41	356.34
478.77	356.53
479.14	356.51
479.50	356.72
479.87	357.13
480.23	357.51
480.60	357.83
480.96	358.14
481.33	358.82
481.69	359.46
482.06	360.10
482.42	360.69
482.79	361.46
483.15	362.43
483.52	363.54
483.88	364.55
484.25	365.64
484.61	366.74
484.98	368.04
485.34	369.55
485.71	371.12
486.07	372.83
486.44	374.38
486.80	376.21
487.17	378.11
487.53	380.20
487.90	382.33
488.26	384.74
488.62	387.34
488.99	389.84
489.35	392.46
489.72	395.30
490.08	398.25
490.44	401.25
490.81	404.39
491.17	407.54
491.54	410.93
491.90	414.37
492.26	418.14
492.63	421.95
492.99	425.88
493.36	429.87
493.72	434.09
494.08	438.41
494.45	442.91
494.81	447.61
495.17	452.30
495.54	457.26
495.90	462.34
496.26	467.47
496.63	472.63
496.99	478.03
497.35	483.58
497.72	489.26
498.08	495.04
498.44	500.81
498.80	506.99
499.17	513.18
499.53	519.39
499.89	525.71
500.26	532.12
500.62	538.59
500.98	545.46
501.34	552.21
501.71	559.22
502.07	566.12
502.43	573.06
502.79	580.21
503.16	587.40
503.52	594.55
503.88	601.72
504.24	609.06
504.60	616.36
504.97	623.77
505.33	631.20
505.69	638.97
506.05	646.61
506.41	653.99
506.78	661.38
507.14	668.93
507.50	676.50
507.86	684.10
508.22	691.59
508.59	698.79
508.95	706.13
509.31	713.56
509.67	721.33
510.03	728.90
510.39	736.16
510.75	743.19
511.12	750.23
511.48	757.18
511.84	764.06
512.20	770.80
512.56	777.71
512.92	784.34
513.28	790.67
513.64	796.94
514.00	803.18
514.37	809.39
514.73	815.35
515.09	821.03
515.45	826.56
515.81	831.93
516.17	837.00
516.53	841.81
516.89	846.33
517.25	850.52
517.61	854.64
517.97	858.85
518.33	862.74
518.69	866.38
519.05	870.02
519.41	873.42
519.77	876.94
520.13	879.62
520.49	882.29
520.85	884.74
521.21	887.05
521.57	889.25
521.93	890.99
522.29	892.89
522.65	894.48
523.01	895.78
523.37	896.77
523.73	897.92
524.09	898.87
524.45	899.56
524.81	900.00
525.17	900.36
525.53	900.37
525.89	900.32
526.25	900.14
526.61	899.46
526.97	898.82
527.33	897.86
527.68	897.09
528.04	896.10
528.40	894.86
528.76	893.55
529.12	892.00
529.48	890.54
529.84	888.31
530.20	886.18
530.56	883.91
530.91	881.79
531.27	879.50
531.63	877.06
531.99	874.35
532.35	871.42
532.71	868.48
533.07	865.61
533.42	862.49
533.78	859.42
534.14	856.45
534.50	853.28
534.86	850.19
535.21	846.43
535.57	842.76
535.93	839.06
536.29	835.20
536.65	831.31
537.00	827.21
537.36	823.58
537.72	819.58
538.08	815.66
538.44	811.55
538.79	807.44
539.15	803.04
539.51	798.79
539.87	794.51
540.22	789.80
540.58	785.35
540.94	781.04
541.29	776.54
541.65	771.98
542.01	767.38
542.37	762.55
542.72	758.24
543.08	753.72
543.44	749.34
543.79	744.84
544.15	740.38
544.51	736.09
544.87	731.58
545.22	727.16
545.58	722.67
545.94	718.24
546.29	713.76
546.65	709.57
547.01	705.36
547.36	701.38
547.72	697.63
548.07	693.56
548.43	689.54
548.79	685.51
549.14	681.74
549.50	678.06
549.86	674.39
550.21	670.62
550.57	667.08
550.92	663.37
551.28	659.85
551.64	656.40
551.99	653.08
552.35	649.84
552.70	646.73
553.06	643.77
553.41	640.90
553.77	638.05
554.13	635.17
554.48	632.37
554.84	629.45
555.19	626.66
555.55	624.04
555.90	621.42
556.26	618.94
556.61	616.39
556.97	613.73
557.32	611.19
557.68	608.77
558.03	606.38
558.39	604.15
558.74	602.23
559.10	600.11
559.45	598.01
559.81	595.98
560.16	593.97
560.52	592.07
560.87	590.30
561.23	588.46
561.58	586.87
561.94	585.15
562.29	583.46
562.64	581.91
563.00	580.30
563.35	578.94
563.71	577.65
564.06	576.38
564.42	575.18
564.77	574.08
565.12	573.10
565.48	572.23
565.83	571.36
566.19	570.36
566.54	569.45
566.89	568.44
567.25	567.59
567.60	566.96
567.96	566.36
568.31	565.59
568.66	564.86
569.02	564.15
569.37	563.68
569.72	563.33
570.08	562.85
570.43	562.38
570.78	561.82
571.14	561.26
571.49	560.72
571.84	560.33
572.20	559.80
572.55	559.29
572.90	558.64
573.26	558.06
573.61	557.38
573.96	556.85
574.31	556.45
574.67	556.01
575.02	555.43
575.37	554.79
575.72	554.27
576.08	553.76
576.43	553.13
576.78	552.51
577.13	551.95
577.49	551.43
577.84	550.88
578.19	550.33
578.54	549.81
578.90	549.21
579.25	548.55
579.60	548.13
579.95	547.64
580.30	547.35
580.66	546.96
581.01	546.56
581.36	546.14
581.71	545.83
582.06	545.61
582.42	545.26
582.77	544.92
583.12	544.66
583.47	544.49
583.82	544.35
584.17	544.06
584.53	543.81
584.88	543.58
585.23	543.39
585.58	543.14
585.93	542.81
586.28	542.68
586.63	542.60
586.98	542.34
587.34	542.07
587.69	541.50
588.04	541.13
588.39	540.88
588.74	540.57
589.09	540.26
589.44	539.70
589.79	539.43
590.14	539.20
590.49	538.83
590.84	538.47
591.19	538.19
591.54	537.89
591.89	537.42
592.25	537.15
592.60	536.63
592.95	536.26
593.30	535.90
593.65	535.46
594.00	534.93
594.35	534.91
594.70	534.30
595.05	533.97
595.40	533.59
595.75	533.07
596.10	532.72
596.45	532.18
596.80	531.75
597.15	531.18
597.50	530.59
597.85	530.18
598.19	529.67
598.54	529.06
598.89	528.54
599.24	528.15
599.59	527.57
599.94	527.27
600.29	526.86
600.64	526.40
600.99	525.79
601.34	525.21
601.69	524.16
602.04	523.75
602.39	523.21
602.74	522.75
603.08	522.26
603.43	521.66
603.78	521.06
604.13	520.48
604.48	519.86
604.83	519.27
605.18	518.53
605.53	517.78
605.87	516.97
606.22	516.16
606.57	515.26
606.92	514.26
607.27	513.21
607.62	512.23
607.96	511.35
608.31	510.66
608.66	509.94
609.01	509.20
609.36	508.45
609.70	507.58
610.05	506.45
610.40	505.48
610.75	504.54
611.10	503.77
611.44	502.87
611.79	502.02
612.14	501.06
612.49	500.02
612.83	499.15
613.18	498.30
613.53	497.43
613.88	496.49
614.22	495.64
614.57	494.65
614.92	493.64
615.27	492.64
615.61	491.58
615.96	490.52
616.31	489.42
616.65	488.29
617.00	487.20
617.35	486.25
617.70	485.22
618.04	484.05
618.39	482.89
618.74	481.91
619.08	480.76
619.43	479.66
619.78	478.64
620.12	477.51
620.47	476.52
620.82	475.40
621.16	474.31
621.51	473.19
621.85	472.04
622.20	470.91
622.55	469.77
622.89	468.65
623.24	467.59
623.59	466.49
623.93	465.39
624.28	464.34
624.62	463.43
624.97	462.46
625.32	461.36
625.66	460.04
626.01	458.71
626.35	457.51
626.70	456.25
627.04	455.14
627.39	453.89
627.73	452.73
628.08	451.63
628.43	450.51
628.77	449.32
629.12	448.18
629.46	447.10
629.81	446.03
630.15	444.77
630.50	443.55
630.84	442.42
631.19	441.34
631.53	440.27
631.88	438.97
632.22	437.71
632.57	436.76
632.91	435.74
633.26	434.65
633.60	433.54
633.95	432.50
634.29	431.30
634.64	430.19
634.98	428.85
635.32	427.66
635.67	426.56
636.01	425.48
636.36	424.36
636.70	423.28
637.05	422.04
637.39	420.98
637.73	419.81
638.08	418.70
638.42	417.61
638.77	416.37
639.11	415.04
639.45	413.79
639.80	412.46
640.14	411.24
640.49	410.02
640.83	408.85
641.17	407.59
641.52	406.35
641.86	405.09
642.20	404.03
642.55	402.72
642.89	401.46
643.23	400.25
643.58	399.25
643.92	398.06
644.26	396.97
644.61	395.82
644.95	394.62
645.29	393.29
645.64	391.96
645.98	390.74
646.32	389.65
646.66	388.46
647.01	387.27
647.35	386.18
647.69	385.05
648.04	383.84
648.38	382.69
648.72	381.54
649.06	380.40
649.41	379.18
649.75	378.02
650.09	376.88
650.43	375.68
650.78	374.36
651.12	373.16
651.46	371.92
651.80	370.70
652.14	369.64
652.49	368.63
652.83	367.53
653.17	366.42
653.51	365.36
653.85	364.40
654.20	363.36
654.54	362.16
654.88	361.04
655.22	360.05
655.56	359.00
655.90	357.95
656.25	356.86
656.59	355.79
656.93	354.83
657.27	353.87
657.61	352.84
657.95	351.90
658.29	350.92
658.64	349.98
658.98	349.02
659.32	347.98
659.66	346.99
660.00	346.04
660.34	345.09
660.68	344.04
661.02	342.93
661.36	341.92
661.70	341.00
662.05	340.12
662.39	339.19
662.73	338.35
663.07	337.55
663.41	336.76
663.75	335.88
664.09	334.98
664.43	334.04
664.77	333.19
665.11	332.24
665.45	331.36
665.79	330.50
666.13	329.64
666.47	328.77
666.81	327.87
667.15	326.94
667.49	326.16
667.83	325.42
668.17	324.61
668.51	323.84
668.85	323.07
669.19	322.35
669.53	321.49
669.87	320.64
670.21	319.81
670.55	318.99
670.89	318.34
671.23	317.66
671.57	316.93
671.91	316.25
672.25	315.58
672.58	314.96
672.92	314.25
673.26	313.58
673.60	312.90
673.94	312.23
674.28	311.58
674.62	310.90
674.96	310.19
675.30	309.63
675.64	309.01
675.97	308.35
676.31	307.61
676.65	306.96
676.99	306.35
677.33	305.64
677.67	304.99
678.01	304.24
678.34	303.55
678.68	302.91
679.02	302.24
679.36	301.61
679.70	300.90
680.04	300.25
680.37	299.59
680.71	298.99
681.05	298.42
681.39	297.80
681.73	297.16
682.06	296.49
682.40	295.83
682.74	295.23
683.08	294.70
683.42	294.14
683.75	293.58
684.09	292.92
684.43	292.35
684.77	291.72
685.10	291.17
685.44	290.60
685.78	290.02
686.12	289.53
686.45	288.94
686.79	288.36
687.13	287.81
687.46	287.22
687.80	286.64
688.14	286.04
688.48	285.52
688.81	284.96
689.15	284.50
689.49	283.94
689.82	283.36
690.16	282.71
690.50	282.12
690.83	281.55
691.17	281.00
691.51	280.47
691.84	279.99
692.18	279.40
692.52	278.83
692.85	278.30
693.19	277.76
693.52	277.25
693.86	276.71
694.20	276.20
694.53	275.73
694.87	275.23
695.21	274.71
695.54	274.26
695.88	273.74
696.21	273.18
696.55	272.73
696.88	272.26
697.22	271.79
697.56	271.36
697.89	270.86
698.23	270.42
698.56	269.93
698.90	269.47
699.23	269.02
699.57	268.60
699.90	268.14
700.24	267.68
700.58	267.27
700.91	266.91
701.25	266.64
701.58	266.34
701.92	265.99
702.25	265.62
702.59	265.13
702.92	264.74
703.26	264.33
703.59	263.92
703.93	263.68
704.26	263.31
704.60	262.91
704.93	262.53
705.26	262.13
705.60	261.83
705.93	261.44
706.27	261.14
706.60	260.83
706.94	260.55
707.27	260.18
707.61	259.82
707.94	259.48
708.27	259.01
708.61	258.56
708.94	258.19
709.28	257.86
709.61	257.55
709.94	257.28
710.28	257.00
710.61	256.72
710.95	256.27
711.28	256.12
711.61	255.86
711.95	255.64
712.28	255.35
712.61	255.05
712.95	254.89
713.28	254.71
713.61	254.43
713.95	254.15
714.28	253.90
714.61	253.64
714.95	253.39
715.28	253.14
715.61	252.93
715.95	252.75
716.28	252.54
716.61	252.37
716.95	252.14
717.28	251.96
717.61	251.73
717.94	251.53
718.28	251.19
718.61	250.99
718.94	250.76
719.27	250.55
719.61	250.37
719.94	250.13
720.27	249.85
720.60	249.65
720.94	249.45
721.27	249.29
721.60	249.15
721.93	248.97
722.27	248.86
722.60	248.69
722.93	248.46
723.26	248.24
723.59	248.01
723.93	247.82
724.26	247.63
724.59	247.48
724.92	247.29
725.25	247.14
725.59	246.94
725.92	246.79
726.25	246.63
726.58	246.44
726.91	246.24
727.24	246.09
727.57	245.91
727.91	245.71
728.24	245.56
728.57	245.34
728.90	245.16
729.23	244.89
729.56	244.79
729.89	244.64
730.22	244.47
730.55	244.29
730.89	244.13
731.22	243.94
731.55	243.73
731.88	243.57
732.21	243.37
732.54	243.19
732.87	243.03
733.20	242.84
733.53	242.66
733.86	242.53
734.19	242.32
734.52	242.18
734.85	242.14
735.18	241.92
735.51	241.81
735.84	241.67
736.17	241.59
736.50	241.31
736.83	241.37
737.16	241.22
737.49	241.05
737.82	240.87
738.15	240.75
738.48	240.59
738.81	240.43
739.14	240.25
739.47	240.08
739.80	239.91
740.13	239.80
740.46	239.66
740.79	239.46
741.12	239.31
741.45	239.12
741.78	238.89
742.11	238.80
742.44	238.63
742.77	238.52
743.10	238.35
743.43	238.20
743.75	237.86
744.08	238.01
744.41	237.89
744.74	237.78
745.07	237.61
745.40	237.55
745.73	237.50
746.06	237.42
746.39	237.34
746.71	237.23
747.04	237.10
747.37	237.00
747.70	236.96
748.03	236.88
748.36	236.85
748.68	236.76
749.01	236.62
749.34	236.53
749.67	236.44
750.00	236.37
750.33	236.45
750.65	236.38
750.98	236.05
751.31	236.00
751.64	235.93
751.97	235.96
752.29	235.86
752.62	235.71
752.95	235.65
753.28	235.55
753.60	235.50
753.93	235.48
754.26	235.41
754.59	235.33
754.91	235.24
755.24	235.12
755.57	235.15
755.90	235.08
756.22	235.02
756.55	234.93
756.88	234.85
757.20	234.67
757.53	234.58
757.86	234.52
758.19	234.49
758.51	234.46
758.84	234.33
759.17	234.26
759.49	234.21
759.82	234.24
760.15	234.24
760.47	234.18
760.80	234.12
761.13	234.12
761.45	234.08
761.78	234.04
762.11	234.03
762.43	233.90
762.76	233.84
763.08	233.80
763.41	233.79
763.74	233.78
764.06	233.73
764.39	233.71
764.71	233.68
765.04	233.61
765.37	233.51
765.69	233.45
766.02	233.41
766.34	233.37
766.67	233.25
767.00	233.23
767.32	233.30
767.65	233.33
767.97	233.25
768.30	233.18
768.62	233.10
768.95	233.02
769.27	232.96
769.60	232.95
769.92	232.86
770.25	232.77
770.57	232.66
770.90	232.60
771.22	232.48
771.55	232.40
771.87	232.33
772.20	232.29
772.52	232.39
772.85	232.56
773.17	232.47
773.50	232.39
773.82	232.26
774.15	232.09
774.47	231.89
774.80	231.80
775.12	231.74
775.45	231.70
775.77	231.64
776.09	231.58
776.42	231.52
776.74	231.52
777.07	231.44
777.39	231.40
777.72	231.32
778.04	231.29
778.36	231.22
778.69	231.18
779.01	231.13
779.33	230.90
779.66	230.64
779.98	230.58
780.31	230.54
780.63	230.56
780.95	230.53
781.28	230.47
781.60	230.42
781.92	230.35
782.25	230.29
782.57	230.25
782.89	230.21
783.22	230.15
783.54	230.05
783.86	230.03
784.19	229.97
784.51	229.98
784.83	229.92
785.16	229.89
785.48	229.87
785.80	229.84
786.12	229.82
786.45	229.80
786.77	229.79
787.09	229.76
787.42	229.68
787.74	229.67
788.06	229.68
788.38	229.67
788.71	229.65
789.03	229.63
789.35	229.60
789.67	229.53
789.99	229.53
790.32	229.49
790.64	229.50
790.96	229.67
791.28	229.59
791.61	229.59
791.93	229.57
792.25	229.53
792.57	229.67
792.89	229.64
793.21	229.64
793.54	229.62
793.86	229.62
794.18	229.61
794.50	229.57
794.82	229.56
795.14	229.59
795.47	229.63
795.79	229.65
796.11	229.64
796.43	229.65
796.75	229.65
797.07	229.68
797.39	229.66
797.71	229.54
798.04	229.56
798.36	229.58
798.68	229.61
799.00	229.63
799.32	229.54
799.64	229.58
799.96	229.57
800.28	229.60
800.60	229.60
800.92	229.64
801.24	229.65
801.56	229.68
801.89	229.66
802.21	229.66
802.53	229.63
802.85	229.69
803.17	229.78
803.49	229.76
803.81	229.76
804.13	229.75
804.45	229.73
804.77	229.73
805.09	229.72
805.41	229.71
805.73	229.67
806.05	229.63
806.37	229.62
806.69	229.60
807.01	229.57
807.33	229.57
807.65	229.50
807.97	229.56
808.28	229.51
808.60	229.49
808.92	229.44
809.24	229.55
809.56	229.50
809.88	229.42
810.20	229.39
810.52	229.42
810.84	229.41
811.16	229.37
811.48	229.34
811.80	229.38
812.12	229.36
812.43	229.38
812.75	229.38
813.07	229.32
813.39	229.29
813.71	229.26
814.03	229.20
814.35	229.16
814.67	229.07
814.98	229.03
815.30	229.00
815.62	228.96
815.94	228.81
816.26	228.78
816.58	228.72
816.89	228.69
817.21	228.59
817.53	228.56
817.85	228.53
818.17	228.48
818.48	228.38
818.80	228.37
819.12	228.31
819.44	228.24
819.76	228.20
820.07	228.19
820.39	228.15
820.71	228.13
821.03	228.13
821.34	228.07
821.66	228.07
821.98	228.04
822.30	228.00
822.61	228.08
822.93	228.04
823.25	228.01
823.57	227.99
823.88	228.01
824.20	227.97
824.52	227.98
824.83	227.95
825.15	227.92
825.47	227.89
825.79	227.88
826.10	227.85
826.42	227.84
826.74	227.83
827.05	227.85
827.37	227.84
827.69	227.79
828.00	227.80
828.32	227.80
828.64	227.77
828.95	227.88
829.27	227.84
829.58	227.81
829.90	227.83
830.22	227.83
830.53	227.79
830.85	227.78
831.17	227.74
831.48	227.72
831.80	227.74
832.11	227.74
832.43	227.71
832.75	227.73
833.06	227.85
833.38	227.82
833.69	227.82
834.01	227.85
834.32	227.90
834.64	227.89
834.96	227.90
835.27	227.92
835.59	227.89
835.90	227.87
836.22	227.91
836.53	227.91
836.85	227.92
837.16	228.13
837.48	228.16
837.79	228.22
838.11	228.29
838.42	228.31
838.74	228.35
839.05	228.36
839.37	228.36
839.68	228.28
840.00	228.27
840.31	228.28
840.63	228.27
840.94	228.25
841.26	228.24
841.57	228.26
841.88	228.29
842.20	228.27
842.51	228.27
842.83	228.27
843.14	228.44
843.46	228.45
843.77	228.36
844.08	228.36
844.40	228.31
844.71	228.28
845.03	228.26
845.34	228.24
845.65	228.25
845.97	228.27
846.28	228.26
846.60	228.27
846.91	228.28
847.22	228.29
847.54	228.33
847.85	228.35
848.16	228.33
848.48	228.30
848.79	228.36
849.10	228.38
849.42	228.37
849.73	228.19
850.04	228.18
850.36	228.11
850.67	228.12
850.98	228.13
851.30	228.15
851.61	228.13
851.92	228.13
852.23	228.13
852.55	228.13
852.86	228.12
853.17	228.12
853.49	228.12
853.80	228.13
854.11	228.12
854.42	228.12
854.74	228.08
855.05	228.05
855.36	227.91
855.67	227.88
855.99	227.86
856.30	228.04
856.61	228.02
856.92	227.98
857.23	227.99
857.55	227.95
857.86	227.90
858.17	227.91
858.48	227.83
858.79	227.80
859.11	227.78
859.42	227.77
859.73	227.74
860.04	227.71
860.35	227.64
860.66	227.56
860.98	227.54
861.29	227.55
861.60	227.51
861.91	227.57
862.22	227.51
862.53	227.48
862.84	227.27
863.16	227.29
863.47	227.24
863.78	227.20
864.09	227.19
864.40	227.20
864.71	227.19
865.02	227.22
865.33	227.19
865.64	227.13
865.95	227.10
866.27	227.21
866.58	227.19
866.89	227.22
867.20	227.24
867.51	227.21
867.82	227.19
868.13	227.27
868.44	227.22
868.75	227.26
869.06	227.27
869.37	227.28
869.68	227.25
869.99	227.28
870.30	227.30
870.61	227.33
870.92	227.32
871.23	227.31
871.54	227.34
871.85	227.40
872.16	227.46
872.47	227.46
872.78	227.36
873.09	227.37
873.40	227.34
873.71	227.36
874.02	227.38
874.33	227.40
874.64	227.36
874.95	227.40
875.26	227.40
875.56	227.41
875.87	227.42
876.18	227.44
876.49	227.63
876.80	227.63
877.11	227.65
877.42	227.69
877.73	227.72
878.04	227.70
878.35	227.71
878.66	227.73
878.96	227.76
879.27	227.80
879.58	227.82
879.89	227.83
880.20	227.89
880.51	227.94
880.82	227.96
881.12	228.00
881.43	227.98
881.74	227.97
882.05	227.98
882.36	228.00
882.67	228.04
882.97	227.86
883.28	227.85
883.59	227.84
883.90	227.84
884.21	227.85
884.51	227.88
884.82	227.86
885.13	227.86
885.44	227.86
885.74	227.87
886.05	227.84
886.36	227.86
886.67	227.80
886.98	227.85
887.28	227.86
887.59	227.87
887.90	227.87
888.20	227.87
888.51	227.92
888.82	227.93
889.13	227.92
889.43	228.07
889.74	228.03
890.05	228.02
890.35	228.00
890.66	227.97
890.97	227.93
891.28	227.89
891.58	227.87
891.89	227.86
892.20	227.82
892.50	227.82
892.81	227.78
893.12	227.77
893.42	227.67
893.73	227.67
894.04	227.65
894.34	227.63
894.65	227.62
894.95	227.56
895.26	227.53
895.57	227.59
895.87	227.40
896.18	227.45
896.48	227.45
896.79	227.44
897.10	227.43
897.40	227.42
897.71	227.44
898.01	227.41
898.32	227.39
898.63	227.37
898.93	227.38
899.24	227.39
899.54	227.34
899.85	227.32
900.15	227.31
900.46	227.28
900.76	227.31
901.07	227.29
901.38	227.26
901.68	227.28
901.99	227.18
902.29	227.17
902.60	227.13
902.90	227.10
903.21	227.07
903.51	227.06
903.82	227.11
904.12	227.12
904.43	227.12
904.73	227.13
905.03	227.14
905.34	227.30
905.64	227.29
905.95	227.30
906.25	227.31
906.56	227.28
906.86	227.29
907.17	227.26
907.47	227.26
907.77	227.24
908.08	227.19
908.38	227.21
908.69	227.24
908.99	227.27
909.30	227.27
909.60	227.30
909.90	227.32
910.21	227.26
910.51	227.22
910.81	227.26
911.12	227.28
911.42	227.29
911.73	227.14
912.03	227.17
912.33	227.23
912.64	227.22
912.94	227.22
913.24	227.20
913.55	227.22
913.85	227.20
914.15	227.25
914.46	227.33
914.76	227.29
915.06	227.32
915.37	227.29
915.67	227.30
915.97	227.31
916.27	227.29
916.58	227.31
916.88	227.32
917.18	227.31
917.49	227.43
917.79	227.46
918.09	227.46
918.39	227.51
918.70	227.49
919.00	227.52
919.30	227.64
919.60	227.64
919.91	227.62
920.21	227.66
920.51	227.68
920.81	227.65
921.12	227.70
921.42	227.69
921.72	227.71
922.02	227.74
922.32	227.78
922.63	227.80
922.93	227.92
923.23	227.94
923.53	227.92
923.83	227.80
924.13	227.80
924.44	227.83
924.74	227.84
925.04	227.91
925.34	227.91
925.64	227.81
925.94	227.82
926.24	227.92
926.55	227.89
926.85	227.90
927.15	227.90
927.45	227.89
927.75	227.88
928.05	227.88
928.35	227.88
928.65	227.87
928.95	227.88
929.26	227.79
929.56	227.83
929.86	227.86
930.16	227.85
930.46	227.82
930.76	227.80
931.06	227.73
931.36	227.65
931.66	227.67
931.96	227.68
932.26	227.69
932.56	227.63
932.86	227.63
933.16	227.62
933.46	227.59
933.76	227.55
934.06	227.59
934.36	227.63
934.66	227.61
934.96	227.57
935.26	227.58
935.56	227.58
935.86	227.48
936.16	227.44
936.46	227.40
936.76	227.37
937.06	227.33
937.36	227.32
937.66	227.34
937.96	227.30
938.26	227.26
938.56	227.22
938.86	227.21
939.16	227.23
939.46	227.23
939.76	227.22
940.06	227.20
940.35	227.14
940.65	227.05
940.95	227.05
941.25	227.00
941.55	226.95
941.85	226.91
942.15	226.96
942.45	226.98
942.75	226.98
943.04	226.99
943.34	227.01
943.64	226.97
943.94	226.92
944.24	226.92
944.54	226.93
944.84	226.93
945.13	226.93
945.43	226.89
945.73	226.88
946.03	226.88
946.33	226.87
946.62	226.86
946.92	226.88
947.22	226.90
947.52	226.92
947.82	226.95
948.11	226.96
948.41	226.94
948.71	226.94
949.01	226.96
949.31	226.95
949.60	226.95
949.90	227.03
950.20	227.04
950.50	227.05
950.79	227.04
951.09	227.09
951.39	227.06
951.69	227.05
951.98	227.10
952.28	227.13
952.58	227.14
952.87	227.17
953.17	227.19
953.47	227.19
953.76	227.22
954.06	227.21
954.36	227.22
954.66	227.22
954.95	227.28
955.25	227.30
955.55	227.32
955.84	227.31
956.14	227.33
956.44	227.39
956.73	227.38
957.03	227.44
957.32	227.45
957.62	227.47
957.92	227.55
958.21	227.52
958.51	227.71
958.81	227.77
959.10	227.78
959.40	227.83
959.69	227.84
959.99	227.87
960.29	227.89
960.58	227.87
960.88	227.95
961.17	227.92
961.47	227.94
961.76	227.96
962.06	227.99
962.36	227.96
962.65	227.96
962.95	227.98
963.24	227.93
963.54	227.94
963.83	227.96
964.13	227.95
964.42	227.96
964.72	227.82
965.01	227.83
965.31	227.82
965.60	227.78
965.90	227.89
966.19	227.85
966.49	227.85
966.78	227.86
967.08	227.85
967.37	227.85
967.67	227.81
967.96	227.82
968.26	227.81
968.55	227.83
968.85	227.79
969.14	227.75
969.43	227.78
969.73	227.72
970.02	227.68
970.32	227.65
970.61	227.59
970.91	227.55
971.20	227.50
971.49	227.49
971.79	227.48
972.08	227.34
972.38	227.34
972.67	227.31
972.96	227.32
973.26	227.26
973.55	227.30
973.85	227.28
974.14	227.25
974.43	227.26
974.73	227.22
975.02	227.20
975.31	227.19
975.61	227.16
975.90	227.16
976.19	227.13
976.49	227.13
976.78	227.14
977.07	227.11
977.37	227.08
977.66	227.07
977.95	227.04
978.24	227.04
978.54	227.06
978.83	227.05
979.12	227.02
979.42	227.02
979.71	226.99
980.00	226.99
980.29	226.99
980.59	226.94
980.88	226.99
981.17	226.99
981.46	226.99
981.76	226.99
982.05	227.05
982.34	227.05
982.63	227.04
982.93	227.04
983.22	227.08
983.51	227.10
983.80	227.14
984.09	227.16
984.39	227.15
984.68	227.12
984.97	227.13
985.26	227.13
985.55	227.15
985.85	227.11
986.14	227.12
986.43	227.13
986.72	227.13
987.01	227.05
987.30	227.06
987.59	227.06
987.89	227.07
988.18	227.03
988.47	227.02
988.76	227.04
989.05	227.04
989.34	227.03
989.63	227.07
989.92	227.06
990.22	227.02
990.51	227.03
990.80	227.05
991.09	227.07
991.38	227.10
991.67	227.12
991.96	227.10
992.25	227.14
992.54	227.14
992.83	227.17
993.12	227.19
993.41	227.23
993.70	227.32
993.99	227.36
994.28	227.39
994.58	227.44
994.87	227.44
995.16	227.44
995.45	227.44
995.74	227.40
996.03	227.44
996.32	227.50
996.61	227.54
996.90	227.55
997.19	227.54
997.48	227.54
997.77	227.52
998.06	227.56
998.34	227.55
998.63	227.55
998.92	227.55
999.21	227.56
999.50	227.56
999.79	227.51
1000.08	227.52
1000.37	227.52
1000.66	227.50
1000.95	227.53
1001.24	227.55
1001.53	227.58
1001.82	227.58
1002.11	227.54
1002.40	227.56
1002.68	227.60
1002.97	227.74
1003.26	227.74
1003.55	227.71
1003.84	227.72
1004.13	227.78
1004.42	227.75
1004.71	227.76
1004.99	227.75
1005.28	227.82
1005.57	227.81
1005.86	227.79
1006.15	227.74
1006.44	227.71
1006.72	227.73
1007.01	227.69
1007.30	227.68
1007.59	227.67
1007.88	227.64
1008.17	227.66
1008.45	227.60
1008.74	227.50
1009.03	227.38
1009.32	227.37
1009.60	227.32
1009.89	227.30
1010.18	227.20
1010.47	227.19
1010.76	227.16
1011.04	227.14
1011.33	227.10
1011.62	227.09
1011.91	227.11
1012.19	227.13
1012.48	227.12
1012.77	227.09
1013.05	227.16
1013.34	227.15
1013.63	227.12
1013.92	227.13
1014.20	227.11
1014.49	227.11
1014.78	227.11
1015.06	227.06
1015.35	227.06
1015.64	227.12
1015.92	227.13
1016.21	227.15
1016.50	227.16
1016.78	227.20
1017.07	227.20
1017.36	227.15
1017.64	227.14
1017.93	227.12
1018.22	227.09
1018.50	227.07
1018.79	227.07
1019.08	227.00
1019.36	227.00
1019.65	226.99
1019.93	227.04
1020.22	227.06
1020.51	227.14
1020.79	227.15
1021.08	226.53
1021.36	226.66
1021.65	227.10
1021.94	226.74
1022.22	227.12
1022.51	226.64
1022.79	228.18
1023.08	227.44
1023.36	228.92
1023.65	227.06
>>>>>End Processed Spectral Data<<<<<
